timestamp,emg_raw_ch1,emg_raw_ch2,emg_filtered_ch1,emg_filtered_ch2,ln_acc_x,ln_acc_y,ln_acc_z,emg_raw_mav_ch1,emg_raw_mav_ch2,emg_raw_rms_ch1,emg_raw_rms_ch2,emg_raw_sd_ch1,emg_raw_sd_ch2,emg_raw_wl_ch1,emg_raw_wl_ch2,raw_coeff_1,raw_coeff_2,raw_coeff_3,raw_coeff_4,raw_coeff_5,raw_coeff_6,raw_coeff_7,raw_coeff_8,emg_filtered_mav_ch1,emg_filtered_mav_ch2,emg_filtered_rms_ch1,emg_filtered_rms_ch2,emg_filtered_sd_ch1,emg_filtered_sd_ch2,emg_filtered_wl_ch1,emg_filtered_wl_ch2,filtered_coeff_1,filtered_coeff_2,filtered_coeff_3,filtered_coeff_4,filtered_coeff_5,filtered_coeff_6,filtered_coeff_7,filtered_coeff_8,acc_mav_x,acc_mav_y,acc_mav_z,acc_rms_x,acc_rms_y,acc_rms_z,acc_sd_x,acc_sd_y,acc_sd_z,state
18.7437744140625,1.5483672279159897,-0.4781844291906869,-0.007002581646647592,-0.0017945034564849087,4.438090329967249,8.29995244390944,4.049996852146892,1.5408902168273926,0.47805437445640564,1.5408902168273926,0.4780544936656952,0.0003769001050386578,0.0003299212548881769,0.01627945341169834,0.017160940915346146,4.359359264373779,4.359432697296143,4.359485149383545,4.3595290184021,-1.352508783340454,-1.3526585102081299,-1.3526661396026611,-1.353007435798645,0.0018181256018579006,0.004186292178928852,0.002073449082672596,0.004715319722890854,0.002071414142847061,0.004712274763733149,0.0,0.0,0.011713030748069286,0.011713030748069286,0.011713030748069286,0.011713030748069286,-0.024787602946162224,-0.024787602946162224,-0.024787602946162224,-0.024787602946162224,4.46014928817749,8.724621772766113,2.972782611846924,4.460799217224121,8.72475528717041,2.973273515701294,0.07612953335046768,0.04823499172925949,0.05401912331581116,flexion_heavy_vertical
18.941162109375,1.544206210611342,-0.47938645633695004,-0.0020421132924157777,0.0006760764078757097,5.14650139921784,7.745006381139758,5.0115857049166985,1.5412942171096802,0.4784829616546631,1.5412973165512085,0.4784833788871765,0.0030483445152640343,0.0006316425278782845,0.17405754327774048,0.02907302975654602,4.3593597412109375,4.359569072723389,4.361327171325684,4.371204853057861,-1.3536808490753174,-1.3557403087615967,-1.3565195798873901,-1.3565360307693481,0.0019065527012571692,0.002673744922503829,0.00252294703386724,0.0032389359548687935,0.002498679794371128,0.0032374642323702574,0.0,0.0,0.026528021320700645,0.026528021320700645,0.026528021320700645,0.026528021320700645,0.018895696848630905,0.018895696848630905,0.018895696848630905,0.018895696848630905,4.632420539855957,8.557897567749023,3.3625500202178955,4.644155025482178,8.564314842224121,3.421264410018921,0.32993265986442566,0.33146902918815613,0.6311153769493103,flexion_heavy_vertical
19.70654296875,1.5400532068210027,-0.4816703079148501,0.002261265312874921,0.0017944824122284523,6.226790288420178,5.157291482826881,7.016378239608162,1.5389422178268433,0.4793021082878113,1.538953423500061,0.4793029725551605,0.005872993264347315,0.0009030946530401707,0.45809856057167053,0.05740280821919441,4.360259532928467,4.36039400100708,4.361335754394531,4.37069034576416,-1.3567957878112793,-1.3570280075073242,-1.3601447343826294,-1.3613171577453613,0.003131941659376025,0.0013505982933565974,0.004175795707851648,0.0016210804460570216,0.0041757565923035145,0.001564428792335093,0.0,0.0,0.03550535812973976,0.03550535812973976,0.03550535812973976,0.03550535812973976,-0.010216469876468182,-0.010216469876468182,-0.010216469876468182,-0.010216469876468182,5.204562187194824,7.427745819091797,4.974307537078857,5.237215995788574,7.518198013305664,5.162819862365723,0.583918571472168,1.1627074480056763,1.3823796510696411,flexion_heavy_vertical
20.38934326171875,1.5130737075231258,-0.4835755209416772,-0.0034208265722500916,0.0009262572735660124,6.910260068858284,1.8302257027883062,7.893476765346419,1.532741904258728,0.4807196855545044,1.5327707529067993,0.48072144389152527,0.009411758743226528,0.0013023827923461795,0.7896877527236938,0.06399592757225037,4.354452610015869,4.355255603790283,4.356396675109863,4.35674524307251,-1.3623989820480347,-1.3639949560165405,-1.365841031074524,-1.3663290739059448,0.005177301354706287,0.0016198457451537251,0.006467174738645554,0.0019516067113727331,0.006466709543019533,0.001949211349710822,0.0,0.0,-0.04822969809174538,-0.04822969809174538,-0.04822969809174538,-0.04822969809174538,-0.012782678939402103,-0.012782678939402103,-0.012782678939402103,-0.012782678939402103,6.195685386657715,4.892164707183838,6.842651844024658,6.235836505889893,5.218790531158447,6.892132759094238,0.7064972519874573,1.8172779083251953,0.8243826627731323,flexion_heavy_vertical
21.132568359375,1.51399125491144,-0.4833892067340064,-0.022324767240327226,0.0006837425059586272,7.458060935097006,-1.2759899137969917,7.2518766422303855,1.5287468433380127,0.48263564705848694,1.5288176536560059,0.4826372563838959,0.014715934172272682,0.0012457199627533555,1.49437415599823,0.06033976003527641,4.334871292114258,4.337767124176025,4.338323593139648,4.339632034301758,-1.3678873777389526,-1.3682461977005005,-1.3684884309768677,-1.3689489364624023,0.007148876786231995,0.002006154041737318,0.009016497060656548,0.0022930896375328302,0.009016470983624458,0.002293074270710349,0.0,0.0,0.08616261929273605,0.08616261929273605,0.08616261929273605,0.08616261929273605,-0.012782678939402103,-0.012782678939402103,-0.012782678939402103,-0.012782678939402103,7.05600118637085,2.0731334686279297,7.5278472900390625,7.071530818939209,2.5348799228668213,7.532167911529541,0.4683960974216461,1.8182262182235718,0.2550809383392334,flexion_heavy_vertical
21.87579345703125,1.561711732618088,-0.4817544498150885,-0.010756525663247911,-0.0004548892382324678,7.397191346695141,-2.2628279027993443,7.189014187586133,1.528982162475586,0.48393601179122925,1.5290838479995728,0.48393678665161133,0.017638422548770905,0.0008771161665208638,1.8813527822494507,0.06874193251132965,4.338406085968018,4.341667652130127,4.3617706298828125,4.381582736968994,-1.3689334392547607,-1.3694097995758057,-1.36978280544281,-1.3716683387756348,0.008641380816698074,0.0014747576788067818,0.010859924368560314,0.0017877776408568025,0.010859739035367966,0.0017853130120784044,0.0,0.0,0.08616261929273605,0.08616261929273605,0.08616261929273605,0.08616261929273605,-0.01234383787959814,-0.01234383787959814,-0.01234383787959814,-0.01234383787959814,7.415349960327148,1.3342883586883545,7.333198547363281,7.418338298797607,1.4774656295776367,7.339631080627441,0.2105390578508377,1.2320733070373535,0.30721646547317505,extension_heavy_vertical
22.7398681640625,1.5373646727705275,-0.48357351756310013,-0.004361479127885987,-0.0005481610991945566,7.42493095651502,-0.18678101802143365,7.553336615357239,1.5290228128433228,0.48442527651786804,1.529105544090271,0.48442593216896057,0.015913119539618492,0.0007891712011769414,1.7199184894561768,0.06537625193595886,4.332709789276123,4.334251880645752,4.341944217681885,4.343311786651611,-1.3706780672073364,-1.3707365989685059,-1.3710087537765503,-1.3711909055709839,0.008864828385412693,0.0008524695294909179,0.011206654831767082,0.0010728348279371858,0.011202271096408367,0.0010665282607078552,0.0,0.0,0.0846279114484787,0.0846279114484787,0.0846279114484787,0.0846279114484787,-0.008736019022762775,-0.008736019022762775,-0.008736019022762775,-0.008736019022762775,7.461027145385742,1.8114312887191772,7.111743450164795,7.46289587020874,1.9084863662719727,7.114753723144531,0.16700850427150726,0.6008635759353638,0.20693334937095642,extension_heavy_vertical
23.54351806640625,1.537052145712499,-0.4823053789237925,0.00842354717429154,-0.00018583172377337106,7.71418720769833,3.658257827862086,7.563299083086012,1.529028296470642,0.4838009476661682,1.5290801525115967,0.4838019907474518,0.01258582528680563,0.0010028191609308124,1.248395323753357,0.04771847277879715,4.332888126373291,4.33465576171875,4.33612585067749,4.336674213409424,-1.371875286102295,-1.3719823360443115,-1.3721799850463867,-1.372369408607483,0.007166412193328142,0.0007729950011707842,0.009359510615468025,0.0009181455825455487,0.009352718479931355,0.0009141765767708421,0.0,0.0,0.0846279114484787,0.0846279114484787,0.0846279114484787,0.0846279114484787,-0.006033949553966522,-0.006033949553966522,-0.006033949553966522,-0.006033949553966522,7.3502631187438965,1.750504732131958,7.330513954162598,7.355051517486572,2.0240261554718018,7.337592601776123,0.2653617262840271,2.023608922958374,0.32222697138786316,extension_heavy_vertical
24.2786865234375,1.541315335324579,-0.4814439261356372,0.003892917161754266,0.0004174607670638961,5.797317106007192,6.101435782248376,6.237734697104862,1.5306588411331177,0.48235979676246643,1.5306812524795532,0.4823606312274933,0.00828342791646719,0.0008954990771599114,0.6739485859870911,0.04238748550415039,4.33366060256958,4.338648319244385,4.3438334465026855,4.347126007080078,-1.368353009223938,-1.3683598041534424,-1.3684636354446411,-1.3684642314910889,0.004845244809985161,0.0010182532714679837,0.006300265435129404,0.0011499690590426326,0.006297762971371412,0.0011496649822220206,0.0,0.0,-0.0550590418279171,-0.0550590418279171,-0.0550590418279171,-0.0550590418279171,-0.006250262260437012,-0.006250262260437012,-0.006250262260437012,-0.006250262260437012,6.8683342933654785,3.393725633621216,7.164731502532959,6.888384819030762,3.911128282546997,7.1810407638549805,0.5251954793930054,1.964172601699829,0.48370128870010376,extension_heavy_vertical
25.0440673828125,1.5372404632987469,-0.48122555787073273,0.0032436771443112005,0.00015892673717669942,5.485904355264063,7.455184978513749,5.216941550502864,1.5338685512542725,0.48145684599876404,1.533875823020935,0.4814571738243103,0.0047298576682806015,0.0005597028066404164,0.37083739042282104,0.04206493869423866,4.344423294067383,4.346071243286133,4.347540378570557,4.347885608673096,-1.364159345626831,-1.3643217086791992,-1.3643224239349365,-1.364527940750122,0.0031109903939068317,0.0008597024134360254,0.004126040264964104,0.001011068932712078,0.004125731531530619,0.0010085203684866428,0.0,0.0,0.032919809222221375,0.032919809222221375,0.032919809222221375,0.032919809222221375,-0.006250262260437012,-0.006250262260437012,-0.006250262260437012,-0.006250262260437012,6.179873466491699,5.921784400939941,6.180117130279541,6.196141719818115,6.0098981857299805,6.2183966636657715,0.4487018883228302,1.0253510475158691,0.6889158487319946,extension_heavy_vertical
25.89404296875,1.5386468350598748,-0.4798312063810674,-0.001283708313654905,0.0001876792813755829,5.296728101979889,7.841139320997187,4.371605378711962,1.5361384153366089,0.48095065355300903,1.5361454486846924,0.4809509813785553,0.004664307925850153,0.000575255835428834,0.3991831839084625,0.0453164242208004,4.34885835647583,4.350425720214844,4.351321220397949,4.352338790893555,-1.3611931800842285,-1.3615987300872803,-1.3616031408309937,-1.3617459535598755,0.0032849854324012995,0.0004924919921904802,0.004149753600358963,0.0006025083712302148,0.0041475421749055386,0.0006004649912938476,0.0,0.0,0.029212748631834984,0.029212748631834984,0.029212748631834984,0.029212748631834984,-0.0045206001959741116,-0.0045206001959741116,-0.0045206001959741116,-0.0045206001959741116,5.574974060058594,7.2151875495910645,5.178123950958252,5.589051723480225,7.234504699707031,5.200946807861328,0.3964371085166931,0.5283238291740417,0.48670220375061035,rest_heavy_vertical
26.675537109375,1.5371342842341604,-0.47974506110225185,-0.00023492832644429534,-5.0916721503209586e-05,5.180752879310851,8.284793725027173,3.617456605784095,1.5370583534240723,0.4803331196308136,1.5370646715164185,0.48033344745635986,0.0044192043133080006,0.0005645888741128147,0.3249179422855377,0.03899175673723221,4.350321292877197,4.350346565246582,4.351526260375977,4.352292537689209,-1.3605172634124756,-1.3605701923370361,-1.3605725765228271,-1.3607163429260254,0.003006348619237542,0.0004108981811441481,0.003931605257093906,0.0005009735468775034,0.003931577783077955,0.0004908486152999103,0.0,0.0,0.029212748631834984,0.029212748631834984,0.029212748631834984,0.029212748631834984,0.0033818131778389215,0.0033818131778389215,0.0033818131778389215,0.0033818131778389215,5.162801265716553,7.928427219390869,4.352437973022461,5.169229984283447,7.936479091644287,4.37864875793457,0.2577216327190399,0.3574073314666748,0.47838208079338074,rest_heavy_vertical
27.4248046875,1.5381520005513298,-0.4783887738055516,0.00021636876886665414,-0.0002699960597000456,4.959557885463787,8.43630591581941,3.184704209029377,1.5376780033111572,0.4795171916484833,1.5376790761947632,0.47951772809028625,0.0018586150836199522,0.0007316241390071809,0.09895888715982437,0.04154406115412712,4.350348949432373,4.350351810455322,4.3515191078186035,4.352288722991943,-1.3582763671875,-1.3583067655563354,-1.3583478927612305,-1.3583775758743286,0.0011987346224486828,0.00046490112436003983,0.001897582784295082,0.0005649351514875889,0.001895408146083355,0.0005624683108180761,0.0,0.0,0.01775839366018772,0.01775839366018772,0.01775839366018772,0.01775839366018772,-0.0036964137107133865,-0.0036964137107133865,-0.0036964137107133865,-0.0036964137107133865,5.040874481201172,8.29278564453125,3.545257568359375,5.045222282409668,8.295671463012695,3.5715394020080566,0.20941558480262756,0.21881721913814545,0.43248340487480164,rest_heavy_vertical
28.1458740234375,1.5384264634163933,-0.47839478394128293,0.0004283075814016316,-1.7169089476258824e-05,4.994660489994011,8.450294625290228,3.0805068307265824,1.5380089282989502,0.47878143191337585,1.5380090475082397,0.47878190875053406,0.0005157905980013311,0.0006822504219599068,0.016632048413157463,0.04307464137673378,4.351492404937744,4.3516621589660645,4.351833343505859,4.351875305175781,-1.3567559719085693,-1.3567763566970825,-1.3568190336227417,-1.3569287061691284,0.0005001348326914012,0.0005295712617225945,0.000628494715783745,0.000645585882011801,0.0006270711892284453,0.000645326916128397,0.0,0.0,-0.003715110244229436,-0.003715110244229436,-0.003715110244229436,-0.003715110244229436,0.004030758980661631,0.004030758980661631,0.004030758980661631,0.004030758980661631,5.01482629776001,8.406417846679688,3.1091437339782715,5.0167107582092285,8.406603813171387,3.1113054752349854,0.1374947875738144,0.055916573852300644,0.1159597709774971,rest_heavy_vertical
29.07037353515625,1.5395884229911143,-0.4779981149830161,-0.00032535690067680674,0.00010360248792528313,4.993485004808932,8.476455119469911,2.9629583122186394,1.5387110710144043,0.47841528058052063,1.5387111902236938,0.4784155786037445,0.0004461545031517744,0.0005231338436715305,0.014925170689821243,0.03675799071788788,4.3525824546813965,4.354028701782227,4.354424953460693,4.3544721603393555,-1.3534820079803467,-1.3535908460617065,-1.3538812398910522,-1.3551805019378662,0.000412061286624521,0.0004182588018011302,0.0005291405250318348,0.0005437008221633732,0.0005259033059701324,0.0005404381081461906,0.0,0.0,-0.003715110244229436,-0.003715110244229436,-0.003715110244229436,-0.003715110244229436,0.004030758980661631,0.004030758980661631,0.004030758980661631,0.004030758980661631,5.0101776123046875,8.42916488647461,3.035824775695801,5.010631084442139,8.429234504699707,3.0364151000976562,0.06742077320814133,0.03435360640287399,0.059875864535570145,rest_heavy_vertical
30.027099609375,1.5399490311349933,-0.47814436161914475,0.00011510660602434244,-0.00032082805586050014,5.031007585924635,8.354651494817393,3.100758592463573,1.5393381118774414,0.47834309935569763,1.539338231086731,0.4783432185649872,0.0004771070380229503,0.00034781883005052805,0.014538518153131008,0.028850654140114784,4.355143070220947,4.355151653289795,4.355179786682129,4.3553314208984375,-1.353285789489746,-1.3533135652542114,-1.3533179759979248,-1.353432297706604,0.00033351880847476423,0.00025158404605463147,0.0003889717918355018,0.00030646793311461806,0.00038889405550435185,0.0003039328148588538,0.0,0.0,-0.001971215708181262,-0.001971215708181262,-0.001971215708181262,-0.001971215708181262,0.0020638476125895977,0.0020638476125895977,0.0020638476125895977,0.0020638476125895977,5.014084339141846,8.424115180969238,3.0650718212127686,5.014589309692383,8.424202919006348,3.0659375190734863,0.07114028930664062,0.03838471323251724,0.0728551372885704,flexion_heavy_vertical
30.80859375,1.533530206173948,-0.4785410305774116,-0.003302416237103616,0.00025373312899727284,5.0930947455623,7.838767479615498,4.490197447796387,1.539454698562622,0.47844210267066956,1.539456844329834,0.4784422218799591,0.00258248345926404,0.00035590986954048276,0.1383553296327591,0.027774840593338013,4.355177402496338,4.355569839477539,4.355875015258789,4.357177734375,-1.3534332513809204,-1.3538028001785278,-1.3540600538253784,-1.3542888164520264,0.0011447879951447248,0.0003245617263019085,0.0018863436998799443,0.0004003986541647464,0.0018856710521504283,0.0004003371577709913,0.0,0.0,-0.01879875361919403,-0.01879875361919403,-0.01879875361919403,-0.01879875361919403,0.003056590212509036,0.003056590212509036,0.003056590212509036,0.003056590212509036,5.011115550994873,8.347603797912598,3.4308385848999023,5.013932228088379,8.349153518676758,3.4687118530273438,0.16804227232933044,0.16087095439434052,0.5111824870109558,flexion_heavy_vertical
31.66461181640625,1.5312583748675106,-0.48077279431230685,-0.000988666651809849,-0.0009882594389829906,6.523871162099068,5.129825088309031,6.6039836797863956,1.5367887020111084,0.47871750593185425,1.5367969274520874,0.4787178635597229,0.005028237123042345,0.0005916557274758816,0.364406555891037,0.045466676354408264,4.355602264404297,4.355828762054443,4.356319427490234,4.357176780700684,-1.354500412940979,-1.35508131980896,-1.356840968132019,-1.3581509590148926,0.002489674836397171,0.00041077015339396894,0.0032058884389698505,0.0005016904906369746,0.003205872606486082,0.0004982250975444913,0.0,0.0,-0.027955403551459312,-0.027955403551459312,-0.027955403551459312,-0.027955403551459312,-0.003306400729343295,-0.003306400729343295,-0.003306400729343295,-0.003306400729343295,5.413298606872559,7.4327006340026855,4.778646945953369,5.439700603485107,7.503433704376221,4.927606105804443,0.535297691822052,1.0278501510620117,1.2024295330047607,flexion_heavy_vertical
32.460205078125,1.5135184575672431,-0.48183258157959563,-0.005647352231979406,-0.0005765167724393464,7.36588884305676,1.8703450907080499,7.673221655073513,1.529990553855896,0.4797496795654297,1.5300264358520508,0.4797511100769043,0.010469748638570309,0.0011622346937656403,0.7997487187385559,0.06691284477710724,4.3463287353515625,4.347141265869141,4.347903728485107,4.348418235778809,-1.359386682510376,-1.3604050874710083,-1.3621522188186646,-1.362804889678955,0.005030958913266659,0.0004770003433804959,0.006732955574989319,0.000590201118029654,0.006720701698213816,0.0005886132130399346,0.0,0.0,0.055557381361722946,0.055557381361722946,0.055557381361722946,0.055557381361722946,0.0038574428763240576,0.0038574428763240576,0.0038574428763240576,0.0038574428763240576,6.4958295822143555,4.876047134399414,6.465497016906738,6.542936325073242,5.250500679016113,6.517502784729004,0.7837157249450684,1.9472851753234863,0.8216988444328308,flexion_heavy_vertical
33.19537353515625,1.5289665097753022,-0.48265196341763167,-0.008320652475159866,-6.956518407722374e-05,7.61117876032843,-1.126115409354505,6.901008562963201,1.5260236263275146,0.4813784062862396,1.5260846614837646,0.481379896402359,0.013647587969899178,0.0011917039519175887,1.2144421339035034,0.07625860720872879,4.333761215209961,4.334716796875,4.334961414337158,4.33529806137085,-1.364192008972168,-1.3642386198043823,-1.3643410205841064,-1.3643885850906372,0.007925868965685368,0.0005337895127013326,0.010042323730885983,0.0006471489905379713,0.010034487582743168,0.0006470867083407938,0.0,0.0,0.08268310874700546,0.08268310874700546,0.08268310874700546,0.08268310874700546,0.004102120641618967,0.004102120641618967,0.004102120641618967,0.004102120641618967,7.505753517150879,1.9229520559310913,7.081353664398193,7.51804780960083,2.41233491897583,7.08420991897583,0.42977577447891235,1.9095159769058228,0.20116069912910461,flexion_heavy_vertical
33.88623046875,1.5340951589326917,-0.48156613222884065,-0.0033918385045250033,-0.0008015829441924074,7.765243636376984,-2.573373101784371,6.644845565408893,1.5270799398422241,0.4823096990585327,1.5271635055541992,0.4823102653026581,0.0159774012863636,0.0007405521464534104,1.486364722251892,0.06678663194179535,4.324432849884033,4.32872200012207,4.332630634307861,4.333510875701904,-1.3645532131195068,-1.3646693229675293,-1.3647276163101196,-1.3655189275741577,0.009283771738409996,0.0004755485279019922,0.012152208015322685,0.0005767924594692886,0.012147360481321812,0.0005767855909653008,0.0,0.0,-0.11779708415269852,-0.11779708415269852,-0.11779708415269852,-0.11779708415269852,0.004102120641618967,0.004102120641618967,0.004102120641618967,0.004102120641618967,7.824772357940674,1.3590044975280762,6.889900207519531,7.828166961669922,1.559227466583252,6.8933258056640625,0.23050715029239655,1.0816253423690796,0.21730011701583862,extension_heavy_vertical
34.7362060546875,1.5416519029255327,-0.48095109500566924,4.003790511317856e-05,0.00010093995873933714,7.517947779811747,0.05805165781769869,7.216464728162533,1.5276261568069458,0.48217830061912537,1.5277032852172852,0.48217886686325073,0.01534311193972826,0.0007357245194725692,1.4233043193817139,0.055028803646564484,4.332460880279541,4.33717155456543,4.346854209899902,4.348842144012451,-1.3653260469436646,-1.3655048608779907,-1.3655054569244385,-1.365568995475769,0.009008021093904972,0.0004514781467150897,0.011817503720521927,0.0005543245933949947,0.011780910193920135,0.0005537575925700366,0.0,0.0,-0.11779708415269852,-0.11779708415269852,-0.11779708415269852,-0.11779708415269852,0.0034401696175336838,0.0034401696175336838,0.0034401696175336838,0.0034401696175336838,7.760477066040039,1.8117254972457886,6.815792083740234,7.762989521026611,1.9195293188095093,6.819092750549316,0.1974901407957077,0.6383573412895203,0.21214908361434937,extension_heavy_vertical
35.66876220703125,1.5523920154773945,-0.4786952907278487,-0.009461794632342705,0.0002462841470332674,7.012200855046353,3.605116362196448,7.24418189017743,1.5273431539535522,0.4810134470462799,1.527404546737671,0.4810148775577545,0.01369774155318737,0.0011742261704057455,1.2333239316940308,0.045488715171813965,4.3410773277282715,4.346787929534912,4.349083423614502,4.356836318969727,-1.3638933897018433,-1.3639289140701294,-1.3640050888061523,-1.364193320274353,0.008505324833095074,0.0004019428452011198,0.010707172565162182,0.000508475408423692,0.01070674043148756,0.0005068832542747259,0.0,0.0,-0.07392670959234238,-0.07392670959234238,-0.07392670959234238,-0.07392670959234238,0.0034401696175336838,0.0034401696175336838,0.0034401696175336838,0.0034401696175336838,7.572483539581299,1.6757279634475708,7.112834453582764,7.578916549682617,1.9563007354736328,7.120007514953613,0.31219080090522766,1.9544800519943237,0.3195246160030365,extension_heavy_vertical
36.49456787109375,1.534099165689846,-0.477577405481824,-0.000617105163088941,-1.3411995053212737e-05,6.299083086006112,6.2409043959740025,5.811923058442622,1.5287704467773438,0.47935858368873596,1.528812289237976,0.4793597161769867,0.011319336481392384,0.0010399497114121914,0.9422730803489685,0.043625570833683014,4.334151744842529,4.339278221130371,4.3415422439575195,4.347352981567383,-1.3600322008132935,-1.3600823879241943,-1.3601170778274536,-1.3601303100585938,0.007339240983128548,0.0003677755012176931,0.009428882040083408,0.0004485059471335262,0.009412513114511967,0.00044850489939562976,0.0,0.0,-0.07392670959234238,-0.07392670959234238,-0.07392670959234238,-0.07392670959234238,0.002737457165494561,0.002737457165494561,0.002737457165494561,0.002737457165494561,7.0186767578125,3.4275896549224854,6.958017826080322,7.038673400878906,3.9437434673309326,6.976558208465576,0.5301884412765503,1.9551595449447632,0.5082827806472778,extension_heavy_vertical
37.245849609375,1.5329191757079308,-0.47703849664458264,-0.005067423993900963,0.0013290405546010908,5.629822192742872,7.004124977681203,5.150893973082592,1.532426118850708,0.47818028926849365,1.532439112663269,0.4781809449195862,0.006310246419161558,0.0007785445777699351,0.4694076180458069,0.05038296803832054,4.339615821838379,4.341100692749023,4.3413286209106445,4.3425517082214355,-1.3556475639343262,-1.3556933403015137,-1.3557206392288208,-1.3559447526931763,0.004528158809989691,0.0003836188407149166,0.005950835533440113,0.0004851198464166373,0.00592903234064579,0.00048446832806803286,0.0,0.0,0.050868310034275055,0.050868310034275055,0.050868310034275055,0.050868310034275055,0.0037590942811220884,0.0037590942811220884,0.0037590942811220884,0.0037590942811220884,6.24125337600708,5.949032306671143,6.037964820861816,6.255890846252441,6.037470817565918,6.071481704711914,0.4277048707008362,1.0295958518981934,0.6370809674263,extension_heavy_vertical
38.1240234375,1.5358060442375396,-0.47625116886378027,-0.001001076030720906,0.0003880081047384532,5.308793037430552,8.055391549923744,4.373279646669833,1.5350013971328735,0.47729814052581787,1.5350068807601929,0.47729864716529846,0.004111454822123051,0.0007047890685498714,0.3794058561325073,0.04282021522521973,4.342550277709961,4.345046043395996,4.345109939575195,4.346073150634766,-1.352818250656128,-1.3528755903244019,-1.3529624938964844,-1.3530348539352417,0.002919491846114397,0.0003503468178678304,0.0035517611540853977,0.00044965767301619053,0.003551140194758773,0.0004495641333051026,0.0,0.0,-0.02373802475631237,-0.02373802475631237,-0.02373802475631237,-0.02373802475631237,0.0037590942811220884,0.0037590942811220884,0.0037590942811220884,0.0037590942811220884,5.587823390960693,7.261991024017334,5.077536582946777,5.603087425231934,7.28282356262207,5.106914043426514,0.4133012890815735,0.5504618287086487,0.5469849705696106,rest_heavy_vertical
38.94378662109375,1.5342494190831288,-0.47544180391862967,-0.0022132040963209598,-0.0002600654867360303,5.033239580061485,8.302568458924643,3.3239580061486955,1.5350154638290405,0.4764285385608673,1.5350180864334106,0.4764289855957031,0.0028596133925020695,0.0006502385367639363,0.19046521186828613,0.03119460865855217,4.342482089996338,4.345029354095459,4.345114707946777,4.346068859100342,-1.350736379623413,-1.350759506225586,-1.3508961200714111,-1.3512628078460693,0.001964971423149109,0.00027718007913790643,0.002596224658191204,0.0003478668804746121,0.0025829786900430918,0.0003432196972426027,0.0,0.0,-0.02373802475631237,-0.02373802475631237,-0.02373802475631237,-0.02373802475631237,0.0029500287491828203,0.0029500287491828203,0.0029500287491828203,0.0029500287491828203,5.188966274261475,7.994647026062012,4.062296390533447,5.197779655456543,8.00400161743164,4.123171806335449,0.30255740880966187,0.38685768842697144,0.7058972120285034,rest_heavy_vertical
39.72528076171875,1.535453449607969,-0.47471257411656337,-0.001605151082220927,-0.0002358095970361041,5.1061241338960235,8.229949093080009,3.3834977269518993,1.5348702669143677,0.4754721224308014,1.5348702669143677,0.47547265887260437,0.00048456716467626393,0.0007098381756804883,0.017952274531126022,0.026166127994656563,4.34247350692749,4.342897415161133,4.342967987060547,4.34300422668457,-1.347798228263855,-1.3478645086288452,-1.3478798866271973,-1.3478997945785522,0.0013014036230742931,0.00022615742636844516,0.0014875733759254217,0.00029144022846594453,0.0014547038590535522,0.0002912346681114286,0.0,0.0,0.008989925496280193,0.008989925496280193,0.008989925496280193,0.008989925496280193,0.002759800758212805,0.002759800758212805,0.002759800758212805,0.002759800758212805,5.082444190979004,8.29280948638916,3.410104513168335,5.084508419036865,8.293166160583496,3.414134979248047,0.14486846327781677,0.07689529657363892,0.16584457457065582,rest_heavy_vertical
40.50677490234375,1.5359222401950117,-0.47444211800865416,-0.0010754476010020274,3.960510191321594e-05,4.972446136448938,8.434625799391275,3.2687100304361314,1.535557508468628,0.47468096017837524,1.5355576276779175,0.4746811091899872,0.0005425980198197067,0.00040193507447838783,0.024425191804766655,0.016654085367918015,4.344064712524414,4.344069004058838,4.34446382522583,4.344986438751221,-1.3441625833511353,-1.3441792726516724,-1.3442449569702148,-1.3443344831466675,0.0010969495633617043,0.00018970882229041308,0.0012905308976769447,0.0002554436505306512,0.001287659164518118,0.00025538966292515397,0.0,0.0,-0.007640156429260969,-0.007640156429260969,-0.007640156429260969,-0.007640156429260969,0.002759800758212805,0.002759800758212805,0.002759800758212805,0.002759800758212805,5.079568862915039,8.322022438049316,3.3334109783172607,5.08005428314209,8.322175979614258,3.3342344760894775,0.0702151283621788,0.05058959871530533,0.07410608232021332,rest_heavy_vertical
41.32452392578125,1.535796027344654,-0.47365679360642887,0.0005511014242599423,0.0002016132032349557,4.984829928204865,8.386335553802542,3.3022699289204485,1.5359362363815308,0.4741620719432831,1.5359363555908203,0.47416219115257263,0.0004574520280584693,0.0003286114369984716,0.02766665816307068,0.01118886936455965,4.344660758972168,4.344761371612549,4.344857692718506,4.345062732696533,-1.3423234224319458,-1.342339277267456,-1.3423572778701782,-1.3424783945083618,0.0006714517949149013,0.00012031575897708535,0.0008059677784331143,0.00014804606325924397,0.0008042188710533082,0.0001473554875701666,0.0,0.0,-0.0051803854294121265,-0.0051803854294121265,-0.0051803854294121265,-0.0051803854294121265,0.001285047736018896,0.001285047736018896,0.001285047736018896,0.001285047736018896,5.044501304626465,8.360383987426758,3.275424003601074,5.045196056365967,8.360556602478027,3.2763257026672363,0.08371677994728088,0.053700726479291916,0.07685719430446625,rest_heavy_vertical
42.11407470703125,1.534916544149305,-0.4736467767135433,0.0006094161556626934,-0.00014325421353752042,5.0461444877193,8.527045505341658,3.409629494821757,1.5361645221710205,0.4737195372581482,1.53616464138031,0.47371959686279297,0.0004852214769925922,0.0002791824226733297,0.024286959320306778,0.011052639223635197,4.345305919647217,4.3456549644470215,4.345972537994385,4.34613037109375,-1.3412995338439941,-1.3413381576538086,-1.341355323791504,-1.3414571285247803,0.000649590278044343,0.00011830162111436948,0.0007458141772076488,0.00015779651585035026,0.0007406892254948616,0.00015765077841933817,0.0,0.0,-0.0042356159538030624,-0.0042356159538030624,-0.0042356159538030624,-0.0042356159538030624,-0.001496588229201734,-0.001496588229201734,-0.001496588229201734,-0.001496588229201734,4.9589948654174805,8.40911865234375,3.294051170349121,4.9598917961120605,8.409201622009277,3.294961452484131,0.09432396292686462,0.03735875338315964,0.0774526596069336,flexion_heavy_vertical
42.94793701171875,1.5397807473345164,-0.47369285442081677,0.013229505876401463,0.0005122904397333785,5.375703493566509,6.446527608391932,6.2450481518317975,1.5367605686187744,0.4735320210456848,1.5367687940597534,0.4735322594642639,0.005044527817517519,0.00047060594079084694,0.34119340777397156,0.0352213978767395,4.347002029418945,4.3473968505859375,4.3498969078063965,4.354159355163574,-1.3395936489105225,-1.339929461479187,-1.3399306535720825,-1.340294361114502,0.0023275036364793777,0.0002334234886802733,0.003775216406211257,0.0003540481557138264,0.003772603115066886,0.00035338368616066873,0.0,0.0,0.03741869330406189,0.03741869330406189,0.03741869330406189,0.03741869330406189,0.004633548203855753,0.004633548203855753,0.004633548203855753,0.004633548203855753,4.958309173583984,8.146613121032715,4.008616924285889,4.966615200042725,8.161752700805664,4.108879089355469,0.2871232032775879,0.4968857169151306,0.9021530151367188,flexion_heavy_vertical
44.06982421875,1.5192541304334954,-0.4760768749275721,0.0092325227689732,-0.00023168834658296398,7.147968075150321,1.3248326391428449,7.567891852381404,1.5324262380599976,0.4739926755428314,1.5324662923812866,0.47399359941482544,0.011079846881330013,0.0009248856222257018,0.9078931212425232,0.063270702958107,4.349555969238281,4.349882125854492,4.350791931152344,4.354191303253174,-1.3424009084701538,-1.3429454565048218,-1.3454740047454834,-1.3466911315917969,0.005739150103181601,0.00039489156915806234,0.0077565996907651424,0.0005347949918359518,0.007755892351269722,0.0005347176920622587,0.0,0.0,-0.06391505151987076,-0.06391505151987076,-0.06391505151987076,-0.06391505151987076,0.004633548203855753,0.004633548203855753,0.004633548203855753,0.004633548203855753,5.89048433303833,5.692225933074951,6.006272315979004,5.972761631011963,6.18752384185791,6.188109874725342,0.98796546459198,2.42569899559021,1.4890928268432617,flexion_heavy_vertical
44.86541748046875,1.535355284057691,-0.47685017905833477,0.009447625324632808,0.00018071598912585026,7.157708215002154,-1.539598874066269,7.337086560456157,1.528123140335083,0.4754888713359833,1.5282326936721802,0.47549086809158325,0.018297920003533363,0.0013710152124986053,1.574130654335022,0.074058897793293,4.341501235961914,4.3428497314453125,4.344833850860596,4.345547199249268,-1.348185420036316,-1.3483306169509888,-1.3483422994613647,-1.3485724925994873,0.011895522475242615,0.0004554788174573332,0.015354393981397152,0.0005719459732063115,0.01535347755998373,0.0005679273162968457,0.0,0.0,-0.12732049822807312,-0.12732049822807312,-0.12732049822807312,-0.12732049822807312,-0.004542137496173382,-0.004542137496173382,-0.004542137496173382,-0.004542137496173382,7.079789161682129,2.2230372428894043,7.436732292175293,7.096865177154541,2.7706844806671143,7.443270683288574,0.4920192360877991,2.3076725006103516,0.3119128346443176,flexion_heavy_vertical
45.65496826171875,1.5242004721403684,-0.4780842602618316,-0.0015512814750255149,0.0003109536388216604,6.995767112308636,-2.6956363473940903,6.8056268935139235,1.5244632959365845,0.47677668929100037,1.5245932340621948,0.476777583360672,0.01990666799247265,0.0009340099641121924,1.773985743522644,0.08246507495641708,4.344017028808594,4.347029685974121,4.348435878753662,4.359377861022949,-1.3495073318481445,-1.3495533466339111,-1.3498015403747559,-1.350830078125,0.013125194236636162,0.0005324024823494256,0.016490351408720016,0.0006551959668286145,0.01647181622684002,0.0006533863488584757,0.0,0.0,-0.12732049822807312,-0.12732049822807312,-0.12732049822807312,-0.12732049822807312,0.004435362294316292,0.004435362294316292,0.004435362294316292,0.004435362294316292,7.3636698722839355,1.690345048904419,7.330832481384277,7.36671257019043,1.895637035369873,7.336357593536377,0.2117067128419876,1.220463514328003,0.2846642732620239,flexion_heavy_vertical
46.56536865234375,1.5298479963492284,-0.4759706958629855,0.000984003769936932,0.00043090023088201854,6.867542985396372,-1.1447245250096099,7.236226250480352,1.5235984325408936,0.4766785800457001,1.523676872253418,0.47667932510375977,0.015457356348633766,0.0008348750416189432,1.4234405755996704,0.06682068854570389,4.323700904846191,4.328573226928711,4.335871696472168,4.336793422698975,-1.3492683172225952,-1.349287509918213,-1.3496342897415161,-1.3508148193359375,0.010029035620391369,0.0005427502328529954,0.012713330797851086,0.000692281755618751,0.012713300064206123,0.0006922803586348891,0.0,0.0,-0.10340289026498795,-0.10340289026498795,-0.10340289026498795,-0.10340289026498795,0.004435362294316292,0.004435362294316292,0.004435362294316292,0.004435362294316292,7.275940418243408,2.427811861038208,7.127197265625,7.278100967407227,2.472618579864502,7.130074501037598,0.17731185257434845,0.4685858488082886,0.20253804326057434,extension_heavy_vertical
47.33074951171875,1.5136366569032924,-0.4745803511304744,-0.00656582985568522,0.0006343271444542932,7.1496099471699655,2.8691679427226013,7.73207905434594,1.5262584686279297,0.4756614863872528,1.5263075828552246,0.4756624400615692,0.012244313023984432,0.0009558409219607711,1.0758603811264038,0.04939129576086998,4.326024055480957,4.327794551849365,4.335904121398926,4.335913181304932,-1.3476738929748535,-1.3478251695632935,-1.3480286598205566,-1.3480453491210938,0.008218853734433651,0.00041463435627520084,0.010781733319163322,0.0005484322318807244,0.010779465548694134,0.0005462260451167822,0.0,0.0,-0.10340289026498795,-0.10340289026498795,-0.10340289026498795,-0.10340289026498795,-0.004174378234893084,-0.004174378234893084,-0.004174378234893084,-0.004174378234893084,7.1981520652771,1.6943951845169067,7.465819835662842,7.201062202453613,1.9432286024093628,7.476449489593506,0.20469346642494202,1.7435046434402466,0.3985362946987152,extension_heavy_vertical
48.16461181640625,1.5172928228065095,-0.47312389490491885,0.007029592699787498,-0.0002613243396847926,6.15302055140983,5.541205024546944,6.868320201224078,1.5258785486221313,0.4739816188812256,1.5259045362472534,0.47398337721824646,0.008909120224416256,0.001288441475480795,0.8324037790298462,0.049156900495290756,4.3236613273620605,4.32600212097168,4.3270111083984375,4.328169822692871,-1.347032904624939,-1.3472288846969604,-1.3472514152526855,-1.3478549718856812,0.006119231693446636,0.00033066593459807336,0.007948311977088451,0.0004238099209032953,0.007947299629449844,0.0004234453081153333,0.0,0.0,0.06631802767515182,0.06631802767515182,0.06631802767515182,0.06631802767515182,0.003499547252431512,0.003499547252431512,0.003499547252431512,0.003499547252431512,6.835587024688721,2.6103196144104004,7.549685955047607,6.85289192199707,3.2003328800201416,7.559085845947266,0.48670002818107605,2.0443711280822754,0.3768578767776489,extension_heavy_vertical
48.88568115234375,1.5436432612311755,-0.4724487563244344,0.004932941542935141,-0.00028226095852422863,5.73249988618418,6.8724930560883175,5.780109100345879,1.5284655094146729,0.47262364625930786,1.5284864902496338,0.47262415289878845,0.007996397092938423,0.0006921687163412571,0.7123773694038391,0.04000546783208847,4.3295440673828125,4.334887504577637,4.341783046722412,4.349528789520264,-1.3393340110778809,-1.3393803834915161,-1.3393927812576294,-1.34028959274292,0.004972969647496939,0.00031449762172997,0.006337597966194153,0.00039276614552363753,0.006307747680693865,0.000390257773688063,0.0,0.0,0.047232240438461304,0.047232240438461304,0.047232240438461304,0.047232240438461304,-0.003208976238965988,-0.003208976238965988,-0.003208976238965988,-0.003208976238965988,6.167791366577148,5.282572269439697,6.779134750366211,6.186409950256348,5.4432268142700195,6.807713031768799,0.4796009361743927,1.3126884698867798,0.6231241822242737,extension_heavy_vertical
49.58258056640625,1.5285538137884183,-0.47185174950845704,0.007652776354522669,0.00030344910327584785,5.493419639553043,7.630917462144626,4.763650702292341,1.5323078632354736,0.4720957279205322,1.5323221683502197,0.47209596633911133,0.006620803847908974,0.0004792607214767486,0.6308939456939697,0.03898574784398079,4.338962078094482,4.339588642120361,4.344581127166748,4.344935417175293,-1.3362772464752197,-1.3363057374954224,-1.3363213539123535,-1.3364012241363525,0.004511952865868807,0.00029728811932727695,0.005536412354558706,0.0003660832007881254,0.005524177569895983,0.00036415428621694446,0.0,0.0,-0.03604360669851303,-0.03604360669851303,-0.03604360669851303,-0.03604360669851303,-0.0027899378910660744,-0.0027899378910660744,-0.0027899378910660744,-0.0027899378910660744,5.595628261566162,6.813207626342773,5.812833786010742,5.609334945678711,6.840551376342773,5.839207172393799,0.3918968737125397,0.6110183000564575,0.5543518662452698,extension_heavy_vertical
50.4385986328125,1.5334260304879386,-0.4706657493908107,-0.0011440533657373416,-0.00016629888742328186,5.035100368350417,8.22741831091821,3.510036835041836,1.5334135293960571,0.471461683511734,1.5334213972091675,0.47146207094192505,0.00491900322958827,0.0006066625355742872,0.39158037304878235,0.03488282859325409,4.339372634887695,4.339508056640625,4.339788436889648,4.343730926513672,-1.3354716300964355,-1.3354979753494263,-1.3356096744537354,-1.3357844352722168,0.003914499655365944,0.0002785801189020276,0.00480239000171423,0.0003711156896315515,0.0048006088472902775,0.000370784051483497,0.0,0.0,-0.03415967896580696,-0.03415967896580696,-0.03415967896580696,-0.03415967896580696,0.0031162614468485117,0.0031162614468485117,0.0031162614468485117,0.0031162614468485117,5.2144060134887695,7.668454170227051,4.799013137817383,5.2221784591674805,7.681883335113525,4.848925590515137,0.2848133146762848,0.45402759313583374,0.6939395070075989,rest_heavy_vertical
51.46380615234375,1.5341893177258157,-0.47013485406787775,-0.001178822425112174,0.000244440795261606,4.972472311220266,8.279811545086716,3.2713275075688992,1.533478021621704,0.47080352902412415,1.533478856086731,0.4708036780357361,0.001606337958946824,0.00038316508289426565,0.08516161888837814,0.019599052146077156,4.339169025421143,4.339405536651611,4.339550971984863,4.339784622192383,-1.3328279256820679,-1.3328371047973633,-1.3328944444656372,-1.3333579301834106,0.0018622908974066377,0.0002187593054259196,0.0026202898006886244,0.00031579629285261035,0.0026183202862739563,0.0003124015929643065,0.0,0.0,0.027484307065606117,0.027484307065606117,0.027484307065606117,0.027484307065606117,0.0031162614468485117,0.0031162614468485117,0.0031162614468485117,0.0031162614468485117,5.134507656097412,8.148316383361816,3.7820885181427,5.137538433074951,8.15121841430664,3.8268468379974365,0.17644935846328735,0.21748057007789612,0.5835784077644348,rest_heavy_vertical
52.67633056640625,1.5346440846628184,-0.4696660634808351,-0.001256867466549174,-4.969292839699773e-05,5.1887202732864,8.221526751189675,3.2093767262304733,1.5341601371765137,0.470319926738739,1.5341602563858032,0.47032007575035095,0.0004377689037937671,0.0003691734455060214,0.016746241599321365,0.014586599543690681,4.3399577140808105,4.340364933013916,4.34037446975708,4.34041690826416,-1.3319895267486572,-1.3321166038513184,-1.3321726322174072,-1.3321770429611206,0.0009559417376294732,0.00014063298294786364,0.0011178896529600024,0.00018531587556935847,0.0011178844142705202,0.0001825231738621369,0.0,0.0,0.006677371449768543,0.006677371449768543,0.006677371449768543,0.006677371449768543,-0.0017871904419735074,-0.0017871904419735074,-0.0017871904419735074,-0.0017871904419735074,5.194590091705322,8.259608268737793,3.2993650436401367,5.195652961730957,8.259775161743164,3.300210952758789,0.1050938218832016,0.052556391805410385,0.07471953332424164,rest_heavy_vertical
53.69952392578125,1.53547348339374,-0.4694016175086572,-0.0012109238947784157,-4.4300472594697526e-05,5.225405261719616,8.291874502378318,3.2634177382268326,1.5347458124160767,0.4698393940925598,1.5347459316253662,0.469839483499527,0.00040138207259587944,0.0003034483816009015,0.01383332908153534,0.012977886013686657,4.342131614685059,4.342380046844482,4.342775821685791,4.342929363250732,-1.3299564123153687,-1.3299905061721802,-1.3300045728683472,-1.3300256729125977,0.0009225542307831347,0.00013686632155440748,0.001098683220334351,0.00017557948012836277,0.0010841581970453262,0.0001744093169691041,0.0,0.0,0.006677371449768543,0.006677371449768543,0.006677371449768543,0.006677371449768543,-0.0013704377925023437,-0.0013704377925023437,-0.0013704377925023437,-0.0013704377925023437,5.211148738861084,8.263354301452637,3.253410577774048,5.211602210998535,8.263407707214355,3.25372314453125,0.06876501441001892,0.029609186574816704,0.04509823024272919,rest_heavy_vertical
54.80731201171875,1.5334080000807446,-0.469245353979643,0.004462908281034925,0.0003364330043219142,5.185392952409849,8.275513578829177,4.0814639156838695,1.5354756116867065,0.4693940281867981,1.5354769229888916,0.46939414739608765,0.0020623791497200727,0.0003461386077105999,0.10755939036607742,0.015564247965812683,4.343625545501709,4.344765663146973,4.347098350524902,4.347752094268799,-1.3287756443023682,-1.3288325071334839,-1.328899621963501,-1.3290363550186157,0.0009158430038951337,0.00016512148431502283,0.0013985211262479424,0.00021407456370070577,0.0013964211102575064,0.00021339577506296337,0.0,0.0,-0.015886908397078514,-0.015886908397078514,-0.015886908397078514,-0.015886908397078514,0.0017751948907971382,0.0017751948907971382,0.0017751948907971382,0.0017751948907971382,5.208131790161133,8.246377944946289,3.343282461166382,5.210257530212402,8.246856689453125,3.3555524349212646,0.14882375299930573,0.08881213515996933,0.2866959571838379,flexion_heavy_vertical
55.9130859375,1.5203800291938288,-0.4703672459828219,-0.0017818897075688755,-0.00041249151771488644,6.705468629321546,4.818552127472796,6.691441245407666,1.5350897312164307,0.46941202878952026,1.5350960493087769,0.4694124162197113,0.004408282693475485,0.0005981468711979687,0.30857840180397034,0.03696032986044884,4.343934059143066,4.345438480377197,4.346484661102295,4.354451656341553,-1.3287107944488525,-1.3287261724472046,-1.330128788948059,-1.3308050632476807,0.001935520675033331,0.0003204540116712451,0.0027886477764695883,0.00042520230636000633,0.0027833955828100443,0.0004251798673067242,0.0,0.0,-0.02174404077231884,-0.02174404077231884,-0.02174404077231884,-0.02174404077231884,-0.0032554701901972294,-0.0032554701901972294,-0.0032554701901972294,-0.0032554701901972294,5.538858890533447,7.456361293792725,4.503374099731445,5.564350605010986,7.537153244018555,4.669107437133789,0.5320123434066772,1.1006158590316772,1.2329596281051636,flexion_heavy_vertical
56.80938720703125,1.5651395133635153,-0.4719258745158099,-0.0184788964944492,0.00017891476987456396,7.474073501968814,0.7517956237158417,7.648314052302989,1.5337730646133423,0.4702802300453186,1.5338126420974731,0.4702812433242798,0.011018943041563034,0.0009854380041360855,0.7470117807388306,0.06192443147301674,4.358248710632324,4.3607964515686035,4.390490531921387,4.414319038391113,-1.3311960697174072,-1.333363652229309,-1.3339358568191528,-1.334045648574829,0.005780960898846388,0.00042859066161327064,0.008197969757020473,0.0005335579626262188,0.008194548077881336,0.0005332176224328578,0.0,0.0,-0.08008380234241486,-0.08008380234241486,-0.08008380234241486,-0.08008380234241486,0.0035833234433084726,0.0035833234433084726,0.0035833234433084726,0.0035833234433084726,6.505414962768555,4.89596700668335,6.369797229766846,6.55119514465332,5.332225799560547,6.4544453620910645,0.7731330990791321,2.1123769283294678,1.0418976545333862,flexion_heavy_vertical
57.52239990234375,1.534085142039806,-0.4740534625646957,-0.007746892238790021,-0.0005168590986181713,6.946051101410299,-2.406875582051804,6.653302912113894,1.5292000770568848,0.47182852029800415,1.529294490814209,0.4718300402164459,0.016993679106235504,0.0011974729131907225,1.4446302652359009,0.06274381279945374,4.335738182067871,4.3408894538879395,4.3440446853637695,4.361168384552002,-1.3371446132659912,-1.3378440141677856,-1.3389992713928223,-1.339834213256836,0.010467980057001114,0.0004342665779404342,0.013535236939787865,0.0005418942891992629,0.013532716780900955,0.00054139707935974,0.0,0.0,0.1071116253733635,0.1071116253733635,0.1071116253733635,0.1071116253733635,0.004220777656883001,0.004220777656883001,0.004220777656883001,0.004220777656883001,7.2362871170043945,1.9969533681869507,7.378706932067871,7.2422194480896,2.4705007076263428,7.3899126052856445,0.2930764853954315,2.132039785385132,0.4068092107772827,flexion_heavy_vertical
58.265625,1.47032761882343,-0.47486282750984626,-0.005430597882570805,5.067998476272539e-05,7.091882076720696,-3.837952334738001,6.778569117852298,1.5244476795196533,0.47311216592788696,1.5245665311813354,0.4731127619743347,0.019031653180718422,0.0007488236878998578,1.7211966514587402,0.05833237245678902,4.321986675262451,4.322380065917969,4.32240629196167,4.337953567504883,-1.3390547037124634,-1.3399288654327393,-1.3403366804122925,-1.3407618999481201,0.012704785913228989,0.00041895065805874765,0.015627356246113777,0.0005250960239209235,0.015619327314198017,0.0005247707013040781,0.0,0.0,0.1071116253733635,0.1071116253733635,0.1071116253733635,0.1071116253733635,0.004220777656883001,0.004220777656883001,0.004220777656883001,0.004220777656883001,7.1721720695495605,2.051851749420166,7.262365341186523,7.178018093109131,2.4262611865997314,7.274252414703369,0.28964918851852417,1.491092562675476,0.415687620639801,extension_heavy_vertical
59.031005859375,1.5305031011439418,-0.47197395560166044,0.007316341203684547,-5.171927041005704e-05,7.193222477299623,-1.6335763372727972,7.274054958877804,1.527086853981018,0.47325584292411804,1.5272141695022583,0.473256379365921,0.019722234457731247,0.000721957883797586,1.7918999195098877,0.0600973516702652,4.333598613739014,4.346729755401611,4.3491668701171875,4.350149631500244,-1.3391940593719482,-1.33920156955719,-1.3397480249404907,-1.3402684926986694,0.014163830317556858,0.0004130661836825311,0.01695895567536354,0.0005365571123547852,0.016956984996795654,0.0005365384859032929,0.0,0.0,-0.12749692797660828,-0.12749692797660828,-0.12749692797660828,-0.12749692797660828,-0.0038929330185055733,-0.0038929330185055733,-0.0038929330185055733,-0.0038929330185055733,6.98444128036499,3.113032579421997,6.998355865478516,6.9899702072143555,3.1748554706573486,7.004081726074219,0.27796098589897156,0.6234861016273499,0.2831461727619171,extension_heavy_vertical
59.9091796875,1.5224094516924362,-0.4702390297538872,-0.0013359803313733824,-0.00033542070028600053,7.2597386777342665,2.2110160467116136,7.901578616800091,1.5276437997817993,0.47251611948013306,1.527724027633667,0.4725170433521271,0.0156507957726717,0.0009316077339462936,1.432143211364746,0.06296619027853012,4.3256402015686035,4.3327107429504395,4.337236404418945,4.349133491516113,-1.3388510942459106,-1.3389995098114014,-1.3390260934829712,-1.339705228805542,0.01113091316074133,0.0004134839400649071,0.014376463368535042,0.0005356893525458872,0.01437011081725359,0.0005337457405403256,0.0,0.0,-0.12749692797660828,-0.12749692797660828,-0.12749692797660828,-0.12749692797660828,-0.0038929330185055733,-0.0038929330185055733,-0.0038929330185055733,-0.0038929330185055733,7.129913330078125,2.0913209915161133,7.38893985748291,7.136410713195801,2.390740394592285,7.402575492858887,0.3044527471065521,2.025459051132202,0.4491022825241089,extension_heavy_vertical
61.11566162109375,1.5261457527387376,-0.470785952105437,-0.010265744819237322,0.00028731251497451856,6.5746365433751786,4.803251296496912,6.861244698963759,1.526060700416565,0.4712998569011688,1.5260891914367676,0.4713008999824524,0.009318577125668526,0.0009913700632750988,0.8642575144767761,0.06404801458120346,4.318908214569092,4.321127891540527,4.321649551391602,4.324904918670654,-1.3368449211120605,-1.3368626832962036,-1.3369343280792236,-1.3370089530944824,0.006585529539734125,0.0003517316363286227,0.008198047988116741,0.0004493097367230803,0.008197970688343048,0.0004489672719500959,0.0,0.0,-0.05447341501712799,-0.05447341501712799,-0.05447341501712799,-0.05447341501712799,0.0031318841502070427,0.0031318841502070427,0.0031318841502070427,0.0031318841502070427,7.092723846435547,2.4015495777130127,7.555508613586426,7.100036144256592,2.7968451976776123,7.561881065368652,0.3221569061279297,1.9034637212753296,0.3103800117969513,extension_heavy_vertical
62.0643310546875,1.5321118141413574,-0.4692693945225683,-0.003988636814724337,-0.0008954142766788579,5.925645932004766,6.907457418836131,5.817605248669507,1.5289888381958008,0.47006699442863464,1.5290037393569946,0.47006770968437195,0.006734561175107956,0.0008271108381450176,0.5992986559867859,0.05662950128316879,4.333968639373779,4.334005355834961,4.334567546844482,4.336301326751709,-1.33224356174469,-1.3323193788528442,-1.332331895828247,-1.332485556602478,0.004682740196585655,0.00039070131606422365,0.005931174382567406,0.00048223676276393235,0.00591591140255332,0.00048159316065721214,0.0,0.0,-0.04820077493786812,-0.04820077493786812,-0.04820077493786812,-0.04820077493786812,0.003191243391484022,0.003191243391484022,0.003191243391484022,0.003191243391484022,6.417388439178467,4.862969398498535,6.829202651977539,6.441477298736572,5.06805944442749,6.859473705291748,0.5565550923347473,1.427148699760437,0.6437168121337891,rest_heavy_vertical
62.77734375,1.539961051406456,-0.4685201309347309,0.003022023884194386,0.0006644417065682866,5.042831443990747,8.009575207256596,4.283144399074845,1.531581163406372,0.4692652225494385,1.5315908193588257,0.4692656397819519,0.005466422997415066,0.0006248063291423023,0.49902358651161194,0.04751012474298477,4.334700107574463,4.339282035827637,4.347562313079834,4.354287147521973,-1.3292683362960815,-1.329271674156189,-1.3293317556381226,-1.3293875455856323,0.003592799184843898,0.0003872769884765148,0.004458319395780563,0.0004722778685390949,0.004456598311662674,0.000472229381557554,0.0,0.0,-0.031685490161180496,-0.031685490161180496,-0.031685490161180496,-0.031685490161180496,0.003191243391484022,0.003191243391484022,0.003191243391484022,0.003191243391484022,5.6417646408081055,6.793648719787598,5.652374744415283,5.660334587097168,6.846268177032471,5.703306674957275,0.45812490582466125,0.8471832275390625,0.7605054974555969,rest_heavy_vertical
63.4822998046875,1.529956178792392,-0.46748037745321325,0.0007721662045250461,2.1399576086499728e-05,5.212349698614564,8.05550714321837,4.367499981938552,1.5324605703353882,0.4685748517513275,1.5324676036834717,0.46857523918151855,0.004663386382162571,0.0006166697712615132,0.3947657346725464,0.031094439327716827,4.3355631828308105,4.337708950042725,4.338901996612549,4.340248107910156,-1.326704740524292,-1.326961874961853,-1.3270416259765625,-1.3272844552993774,0.0029404633678495884,0.0002678176388144493,0.003825075225904584,0.00033730213181115687,0.003791116876527667,0.0003364316944498569,0.0,0.0,-0.031685490161180496,-0.031685490161180496,-0.031685490161180496,-0.031685490161180496,-0.0028016730211675167,-0.0028016730211675167,-0.0028016730211675167,-0.0028016730211675167,5.220998287200928,7.750687122344971,4.705235481262207,5.229981899261475,7.759407043457031,4.7309465408325195,0.3064098060131073,0.36776235699653625,0.4925588071346283,rest_heavy_vertical
64.64849853515625,1.5274619724638958,-0.46679321860126616,0.0017255510108454006,-8.298139407108171e-05,4.551926359961415,8.062957377610148,4.590226357587632,1.5324698686599731,0.46775022149086,1.5324716567993164,0.4677504599094391,0.0023453468456864357,0.0004781975585501641,0.17668196558952332,0.012971876189112663,4.3351826667785645,4.335480213165283,4.335836887359619,4.337281227111816,-1.3250104188919067,-1.3250316381454468,-1.3250353336334229,-1.3250393867492676,0.0018354159547016025,0.0001535783230792731,0.0023874263279139996,0.00020847347332164645,0.0023829566780477762,0.00020729639800265431,0.0,0.0,0.022634178400039673,0.022634178400039673,0.022634178400039673,0.022634178400039673,0.0016298792324960232,0.0016298792324960232,0.0016298792324960232,0.0016298792324960232,4.934648036956787,8.055620193481445,4.44370174407959,4.9408488273620605,8.057113647460938,4.448903560638428,0.24746017158031464,0.15513935685157776,0.21507813036441803,rest_heavy_vertical
65.46826171875,1.5323762601135353,-0.46628836719983563,-0.0011384440236231435,9.737466296079323e-05,4.596719134325484,8.105471656764974,4.25022668556067,1.5325623750686646,0.46692022681236267,1.5325628519058228,0.46692049503326416,0.0011538297403603792,0.0004986308049410582,0.08669019490480423,0.010740112513303757,4.33472204208374,4.3351240158081055,4.335795879364014,4.3365702629089355,-1.322558045387268,-1.32261323928833,-1.3226299285888672,-1.3226357698440552,0.001319142640568316,0.00010960616054944694,0.0016478465404361486,0.00014444239786826074,0.0016473386203870177,0.00014419815852306783,0.0,0.0,-0.011825375258922577,-0.011825375258922577,-0.011825375258922577,-0.011825375258922577,0.001346311066299677,0.001346311066299677,0.001346311066299677,0.001346311066299677,4.645727157592773,8.140837669372559,4.572700023651123,4.660552501678467,8.143320083618164,4.581794261932373,0.37144410610198975,0.20105618238449097,0.288542777299881,rest_heavy_vertical
66.24169921875,1.5324123209279232,-0.46595380297745903,-0.0016087178614714673,-6.007518366080867e-05,4.418191253922343,8.172510205867297,4.4697278018730975,1.532227873802185,0.4662282168865204,1.5322283506393433,0.46622833609580994,0.0011843785177916288,0.0003180091443937272,0.08509951829910278,0.012268690392374992,4.338558673858643,4.338670253753662,4.338954925537109,4.339298725128174,-1.3200889825820923,-1.3200968503952026,-1.320099115371704,-1.3201156854629517,0.0011808243580162525,0.00011581138824112713,0.0014265327481552958,0.00015174747386481613,0.0014263936318457127,0.00015158444875851274,0.0,0.0,0.00937556754797697,0.00937556754797697,0.00937556754797697,0.00937556754797697,0.001346311066299677,0.001346311066299677,0.001346311066299677,0.001346311066299677,4.5034074783325195,8.195749282836914,4.5726637840271,4.517225742340088,8.198155403137207,4.581976413726807,0.3530610203742981,0.19860881567001343,0.2919875979423523,flexion_heavy_vertical
67.04534912109375,1.5336544156457286,-0.46596181649176743,0.0007144816196732004,-0.00042845925969001245,3.791024008658485,8.29288026724986,4.4036056851259335,1.531485915184021,0.46597278118133545,1.5314897298812866,0.4659728705883026,0.0034014061093330383,0.0002729389234445989,0.26706036925315857,0.021325964480638504,4.334169864654541,4.335282802581787,4.335325241088867,4.3386430740356445,-1.3181594610214233,-1.3181620836257935,-1.318162441253662,-1.3184113502502441,0.0020172009244561195,0.00013213761849328876,0.003003086894750595,0.00019047892419621348,0.0030024454463273287,0.0001894817833090201,0.0,0.0,-0.03393028303980827,-0.03393028303980827,-0.03393028303980827,-0.03393028303980827,0.0018232717411592603,0.0018232717411592603,0.0018232717411592603,0.0018232717411592603,4.510698318481445,8.228242874145508,4.458384037017822,4.517276763916016,8.229549407958984,4.463112831115723,0.24369750916957855,0.14662142097949982,0.2054007351398468,flexion_heavy_vertical
67.8489990234375,1.5376351288784367,-0.4669194314516238,0.016790262477348335,-8.06401766854149e-05,5.865468039887483,5.526092032674827,7.028731699591839,1.5292696952819824,0.46652689576148987,1.5292869806289673,0.4665275514125824,0.007289503701031208,0.0007843712228350341,0.6053228378295898,0.04212704300880432,4.33174467086792,4.335109233856201,4.338809490203857,4.351102352142334,-1.321085810661316,-1.321584939956665,-1.3221421241760254,-1.3224210739135742,0.003688785480335355,0.000275864964351058,0.0050422148779034615,0.00042137649143114686,0.005024548154324293,0.00042076155659742653,0.0,0.0,0.04749003425240517,0.04749003425240517,0.04749003425240517,0.04749003425240517,-0.005129498429596424,-0.005129498429596424,-0.005129498429596424,-0.005129498429596424,4.938882827758789,7.670600891113281,5.123235702514648,4.964132785797119,7.714473724365234,5.198957920074463,0.5000489354133606,0.8215766549110413,0.8840938210487366,flexion_heavy_vertical
68.60833740234375,1.5016223955763917,-0.46907106004343485,-0.009718027720120828,-0.0007618000667619389,6.669953621630809,0.9836727911617883,7.95921758476756,1.523842453956604,0.4675341844558716,1.5238924026489258,0.46753495931625366,0.012335201725363731,0.0008449534652754664,1.1247328519821167,0.06468308717012405,4.329922199249268,4.331579208374023,4.3321027755737305,4.333893299102783,-1.323529601097107,-1.324429988861084,-1.3253284692764282,-1.3255553245544434,0.006608207710087299,0.00041545438580214977,0.008764105848968029,0.0005242858896963298,0.008761430159211159,0.0005240663886070251,0.0,0.0,0.09252426028251648,0.09252426028251648,0.09252426028251648,0.09252426028251648,-0.005129498429596424,-0.005129498429596424,-0.005129498429596424,-0.005129498429596424,5.853298187255859,5.233386516571045,6.775617599487305,5.884313583374023,5.661224842071533,6.865234851837158,0.6033602952957153,2.158965826034546,1.1056476831436157,flexion_heavy_vertical
69.29718017578125,1.511136440439065,-0.47039930004005565,0.007861596530488846,-6.319976465913449e-06,6.656779827685719,-1.2759807683949616,7.846657467366973,1.5219975709915161,0.4686705470085144,1.5221397876739502,0.46867167949676514,0.02080668695271015,0.0010259664850309491,1.9455430507659912,0.07081742584705353,4.312486171722412,4.313019275665283,4.326770305633545,4.335509777069092,-1.3279023170471191,-1.3282023668289185,-1.3285067081451416,-1.328692078590393,0.01155093777924776,0.0004805365460924804,0.015607506036758423,0.000575958751142025,0.01560292113572359,0.0005754068261012435,0.0,0.0,0.18168993294239044,0.18168993294239044,0.18168993294239044,0.18168993294239044,0.004248650744557381,0.004248650744557381,0.004248650744557381,0.004248650744557381,6.612654685974121,2.022675037384033,7.922112941741943,6.6257195472717285,2.62227725982666,7.932520389556885,0.4158773124217987,2.0713353157043457,0.40620627999305725,flexion_heavy_vertical
70.02630615234375,1.4918419013629638,-0.47025706016108115,0.0009736756463686715,0.00016511760509109073,6.0276256793256255,-2.8778273770104,7.581845040996059,1.5207935571670532,0.4695316553115845,1.5209847688674927,0.4695322513580322,0.024115579202771187,0.000735048670321703,2.3692595958709717,0.06284598261117935,4.335601806640625,4.341006755828857,4.343094825744629,4.344414710998535,-1.3286564350128174,-1.3288494348526,-1.3292169570922852,-1.3296217918395996,0.012379261665046215,0.00047877780161798,0.01719418354332447,0.0005883725243620574,0.01718996651470661,0.0005883682169951499,0.0,0.0,0.18168993294239044,0.18168993294239044,0.18168993294239044,0.18168993294239044,0.004248650744557381,0.004248650744557381,0.004248650744557381,0.004248650744557381,6.7185468673706055,1.4507825374603271,7.96912145614624,6.727790832519531,1.7099541425704956,7.975130081176758,0.35255923867225647,1.226462721824646,0.3095239996910095,extension_heavy_vertical
70.75341796875,1.5023255814569556,-0.47014286758218615,0.0036525421409384765,0.00017868167563855482,5.891101770377822,-3.6436493238881713,7.18246619440843,1.5192248821258545,0.46990999579429626,1.5193729400634766,0.46991050243377686,0.021209321916103363,0.0006779177929274738,2.148409128189087,0.05449990928173065,4.325350761413574,4.327149868011475,4.328948974609375,4.3301825523376465,-1.3296244144439697,-1.3297178745269775,-1.329839825630188,-1.331181287765503,0.011337531730532646,0.00044742951286025345,0.01546662300825119,0.0005494594224728644,0.015429706312716007,0.0005483573768287897,0.0,0.0,-0.1529867947101593,-0.1529867947101593,-0.1529867947101593,-0.1529867947101593,-0.003969901707023382,-0.003969901707023382,-0.003969901707023382,-0.003969901707023382,6.37056827545166,2.8780362606048584,7.65925407409668,6.37876033782959,2.977189540863037,7.664628505706787,0.3231700658798218,0.7619481086730957,0.28697681427001953,extension_heavy_vertical
71.5792236328125,1.5328009763718817,-0.46820159374097114,-0.006113730330004423,0.0003203363426998028,7.456806180204673,0.6428994009216923,8.331220430105683,1.5193283557891846,0.4695795774459839,1.5194207429885864,0.4695804715156555,0.016762614250183105,0.0009197778417728841,1.591513991355896,0.05403512716293335,4.325652599334717,4.3258538246154785,4.326004505157471,4.326983451843262,-1.3302738666534424,-1.3303078413009644,-1.3303157091140747,-1.331212043762207,0.0105398865416646,0.00043870287481695414,0.013547332026064396,0.0005330031272023916,0.013547306880354881,0.0005321481730788946,0.0,0.0,0.1188424602150917,0.1188424602150917,0.1188424602150917,0.1188424602150917,-0.003969901707023382,-0.003969901707023382,-0.003969901707023382,-0.003969901707023382,6.418020248413086,2.532177686691284,7.765860557556152,6.432201385498047,2.8195810317993164,7.776943683624268,0.4268849492073059,1.424217700958252,0.4150461256504059,extension_heavy_vertical
72.27813720703125,1.5120179270129912,-0.46695749564458877,-0.009525011040962005,-0.0006603521674165656,6.3075962798683385,3.199781622707382,7.8680617217735955,1.5183897018432617,0.46833205223083496,1.5184299945831299,0.4683331847190857,0.011057865805923939,0.001024062978103757,1.1266019344329834,0.05614067614078522,4.307398796081543,4.3086934089660645,4.309606552124023,4.3135223388671875,-1.3296338319778442,-1.3296656608581543,-1.329679250717163,-1.3300169706344604,0.007754133082926273,0.00035231569199822843,0.009412170387804508,0.0004350077360868454,0.00937624741345644,0.0004310279618948698,0.0,0.0,-0.07447853684425354,-0.07447853684425354,-0.07447853684425354,-0.07447853684425354,0.0031719196122139692,0.0031719196122139692,0.0031719196122139692,0.0031719196122139692,6.754693031311035,1.8036065101623535,7.9994354248046875,6.764451503753662,2.0050666332244873,8.00595474243164,0.36321160197257996,1.9713141918182373,0.3230363726615906,extension_heavy_vertical
73.35369873046875,1.5232668977234374,-0.46592174892022536,0.0013550549001331304,0.000458760425509585,5.411660347451884,6.494522104866738,6.226275709043884,1.5197731256484985,0.46709954738616943,1.5197957754135132,0.4671003222465515,0.008302298374474049,0.0008434514165855944,0.7972525358200073,0.0540611706674099,4.309699535369873,4.309701442718506,4.31327486038208,4.314007759094238,-1.3231312036514282,-1.3231940269470215,-1.323425054550171,-1.323655605316162,0.005039521958678961,0.0003493536205496639,0.006521458271890879,0.0004477872862480581,0.006521195638924837,0.0004463569785002619,0.0,0.0,0.04350852593779564,0.04350852593779564,0.04350852593779564,0.04350852593779564,-0.004111941438168287,-0.004111941438168287,-0.004111941438168287,-0.004111941438168287,6.427600860595703,3.6253621578216553,7.519100189208984,6.449696063995361,4.037395477294922,7.542730331420898,0.533413827419281,1.7768828868865967,0.5965806245803833,extension_heavy_vertical
74.225830078125,1.5214438232182717,-0.46588969486299164,0.0028475235825471835,-0.0006551509449299245,4.811124598906747,7.5982040437240785,5.208845432843568,1.523128628730774,0.46619555354118347,1.5231434106826782,0.46619611978530884,0.006724061444401741,0.0007177235092967749,0.6015945672988892,0.04896858334541321,4.316801071166992,4.319646835327148,4.320370674133301,4.321343898773193,-1.3221834897994995,-1.3222129344940186,-1.322238802909851,-1.3223917484283447,0.003813814138993621,0.0004084935353603214,0.0048709772527217865,0.000499341229442507,0.004870074801146984,0.0004990117158740759,0.0,0.0,-0.039201024919748306,-0.039201024919748306,-0.039201024919748306,-0.039201024919748306,-0.004111941438168287,-0.004111941438168287,-0.004111941438168287,-0.004111941438168287,5.542779445648193,6.251587867736816,6.386382102966309,5.577165126800537,6.388541221618652,6.437049388885498,0.618358850479126,1.3157165050506592,0.806057333946228,rest_heavy_vertical
75.0838623046875,1.5244308606767356,-0.4652085461467758,-0.00017110306871640196,0.00033067593702987405,4.689769270967538,8.207380563056313,3.9166861328985783,1.525298833847046,0.4655483067035675,1.5253067016601562,0.4655486047267914,0.0048987180925905704,0.0005249576643109322,0.4061569571495056,0.03777169808745384,4.315303325653076,4.316705226898193,4.320786476135254,4.321774005889893,-1.3180854320526123,-1.318114161491394,-1.3181406259536743,-1.3182698488235474,0.00317665608599782,0.00031775693059898913,0.004208419006317854,0.0003929138765670359,0.004197413567453623,0.0003927123616449535,0.0,0.0,-0.039201024919748306,-0.039201024919748306,-0.039201024919748306,-0.039201024919748306,-0.002772389678284526,-0.002772389678284526,-0.002772389678284526,-0.002772389678284526,5.019255638122559,7.635278701782227,5.133378982543945,5.028148174285889,7.645289421081543,5.180736064910889,0.29891249537467957,0.391107439994812,0.6988868117332458,rest_heavy_vertical
75.81903076171875,1.5254906479440242,-0.4650743197821097,0.0002643378581498654,-0.00012066626423884139,4.818126651261106,8.465726043433031,3.4994121140626047,1.5251758098602295,0.4651608169078827,1.5251774787902832,0.46516093611717224,0.0022404491901397705,0.0003197140176780522,0.11339523643255234,0.020773032680153847,4.317354202270508,4.318005084991455,4.318800449371338,4.319253921508789,-1.317157506942749,-1.317240834236145,-1.3172435760498047,-1.3173640966415405,0.0013610878959298134,0.00017238251166418195,0.0019836975261569023,0.0002157383569283411,0.0019831196404993534,0.00021567840303760022,0.0,0.0,-0.02612336352467537,-0.02612336352467537,-0.02612336352467537,-0.02612336352467537,-0.0015328993322327733,-0.0015328993322327733,-0.0015328993322327733,-0.0015328993322327733,4.952683925628662,8.139551162719727,4.108748435974121,4.95535945892334,8.14345645904541,4.146326541900635,0.16281427443027496,0.25217536091804504,0.5569655895233154,rest_heavy_vertical
76.675048828125,1.5266365804901285,-0.46492807314598106,-0.0012384963259157722,-0.00013675097251103846,4.89039490820711,8.358624985651177,3.4973221460124537,1.5257526636123657,0.46509480476379395,1.5257527828216553,0.46509483456611633,0.0007575012277811766,0.0001720976724755019,0.01910221390426159,0.011489376425743103,4.317718029022217,4.318004131317139,4.318356990814209,4.318361282348633,-1.3154993057250977,-1.3157957792282104,-1.3158074617385864,-1.3160536289215088,0.0006903800531290472,0.00012310495367273688,0.0008416840573772788,0.00016037342720665038,0.0008409441797994077,0.00016015706933103502,0.0,0.0,0.004419347736984491,0.004419347736984491,0.004419347736984491,0.004419347736984491,0.0016703265719115734,0.0016703265719115734,0.0016703265719115734,0.0016703265719115734,4.921276569366455,8.358296394348145,3.5583815574645996,4.923019886016846,8.358558654785156,3.5613794326782227,0.13100802898406982,0.06614787131547928,0.14609889686107635,rest_heavy_vertical
77.35784912109375,1.5273077123134586,-0.4651464414108855,0.00010168778169861167,-0.0001276933580917492,4.890444878225099,8.441858378948533,3.5023191478113747,1.5267868041992188,0.4651421010494232,1.5267869234085083,0.465142160654068,0.0005334440502338111,0.00019172538304701447,0.01653989404439926,0.012813609093427658,4.3196563720703125,4.319773197174072,4.320189476013184,4.320285797119141,-1.3157624006271362,-1.3158066272735596,-1.3160310983657837,-1.316060185432434,0.0006453888490796089,0.00012770570174325258,0.0007810648530721664,0.0001667520118644461,0.000771360588259995,0.00016647124721203,0.0,0.0,0.0050668190233409405,0.0050668190233409405,0.0050668190233409405,0.0050668190233409405,0.0016703265719115734,0.0016703265719115734,0.0016703265719115734,0.0016703265719115734,4.888516426086426,8.395378112792969,3.47515869140625,4.890030860900879,8.39549446105957,3.47562837600708,0.12168695777654648,0.044222597032785416,0.05713190883398056,rest_heavy_vertical
78.18365478515625,1.528339452280668,-0.464641590009455,-0.0003958673166656744,-0.00016301709687554044,4.8057975885725,8.406763973744265,3.471325122310439,1.527488112449646,0.465016633272171,1.527488112449646,0.4650166630744934,0.00038417181349359453,0.0002199031732743606,0.015133521519601345,0.012975882738828659,4.321295261383057,4.321371078491211,4.322104454040527,4.322349548339844,-1.3156338930130005,-1.3156390190124512,-1.3156771659851074,-1.3160314559936523,0.000760990078561008,0.000124421960208565,0.000878665130585432,0.00016260023403447121,0.0008644031477160752,0.00016207879525609314,0.0,0.0,0.0050668190233409405,0.0050668190233409405,0.0050668190233409405,0.0050668190233409405,0.001433026511222124,0.001433026511222124,0.001433026511222124,0.001433026511222124,4.841414928436279,8.415092468261719,3.4939024448394775,4.842212677001953,8.415178298950195,3.494189739227295,0.08788570016622543,0.03805241733789444,0.0448119193315506,flexion_heavy_vertical
79.03363037109375,1.516142883503251,-0.46557917118354036,0.002094777721073195,-0.0006060511089715155,4.778882928418506,8.340685089806698,4.394316938236374,1.5275934934616089,0.4648863673210144,1.52759850025177,0.46488645672798157,0.0039094071835279465,0.00026886374689638615,0.2202434241771698,0.015512160025537014,4.321814060211182,4.322047710418701,4.325088024139404,4.326423168182373,-1.3151658773422241,-1.315256118774414,-1.3162002563476562,-1.3169587850570679,0.001063343952409923,0.00013376891729421914,0.0015722590032964945,0.00019419340242166072,0.0015677139163017273,0.00019355870608706027,0.0,0.0,-0.023049531504511833,-0.023049531504511833,-0.023049531504511833,-0.023049531504511833,-0.001714171376079321,-0.001714171376079321,-0.001714171376079321,-0.001714171376079321,4.873201370239258,8.364587783813477,3.660487651824951,4.8772759437561035,8.366021156311035,3.671786308288574,0.19932717084884644,0.15483571588993073,0.2878287732601166,flexion_heavy_vertical
79.8453369140625,1.526969141333928,-0.46473574880257895,-0.002206278665658102,0.0005224775650897953,6.438878841369877,4.91684931668652,6.538486546626245,1.5272802114486694,0.46506989002227783,1.5273007154464722,0.4650701880455017,0.007896731607615948,0.0005259074387140572,0.6986021399497986,0.03877539187669754,4.323793888092041,4.325052738189697,4.326066493988037,4.33572244644165,-1.3156065940856934,-1.3158671855926514,-1.3162330389022827,-1.316806674003601,0.0032385443337261677,0.00024269423738587648,0.00477564986795187,0.00034330791095271707,0.004768943879753351,0.00034311471972614527,0.0,0.0,-0.047090962529182434,-0.047090962529182434,-0.047090962529182434,-0.047090962529182434,-0.00402472261339426,-0.00402472261339426,-0.00402472261339426,-0.00402472261339426,5.390087127685547,7.527097702026367,4.716548919677734,5.423915863037109,7.603277683258057,4.8359150886535645,0.6048327088356018,1.0736067295074463,1.0678203105926514,flexion_heavy_vertical
80.6107177734375,1.5224154618281676,-0.4664746814075064,0.013857567037197958,0.00012203466802910494,7.25427528910078,1.8409904430262063,7.355239753451433,1.5254262685775757,0.4655669629573822,1.5254987478256226,0.4655674993991852,0.014872757717967033,0.000724363315384835,1.2410268783569336,0.05751499533653259,4.323802471160889,4.336085796356201,4.355379104614258,4.384515285491943,-1.3178483247756958,-1.3180075883865356,-1.3188177347183228,-1.3194090127944946,0.0071151722222566605,0.0003913029213435948,0.009070245549082756,0.0005127974436618388,0.00905920285731554,0.0005117157124914229,0.0,0.0,-0.08186043053865433,-0.08186043053865433,-0.08186043053865433,-0.08186043053865433,-0.00402472261339426,-0.00402472261339426,-0.00402472261339426,-0.00402472261339426,6.400852680206299,5.174760818481445,6.425638198852539,6.437107086181641,5.496887683868408,6.503644943237305,0.682226300239563,1.8540831804275513,1.0042768716812134,flexion_heavy_vertical
81.29351806640625,1.5339989967609906,-0.46794516128310165,0.00919375485476274,0.0013951827708373768,7.391220373914495,-0.8583156761135549,7.796736186629965,1.5229194164276123,0.46650615334510803,1.52305269241333,0.46650734543800354,0.020150329917669296,0.0010555402841418982,1.6240628957748413,0.06049201637506485,4.314938068389893,4.315525531768799,4.341116905212402,4.355215549468994,-1.3217651844024658,-1.3228363990783691,-1.3229169845581055,-1.3229691982269287,0.010295587591826916,0.0005535442032851279,0.012763197533786297,0.0006916669080965221,0.012758307158946991,0.0006912150420248508,0.0,0.0,-0.11424784362316132,-0.11424784362316132,-0.11424784362316132,-0.11424784362316132,-0.0051619322039186954,-0.0051619322039186954,-0.0051619322039186954,-0.0051619322039186954,7.080037593841553,2.168839693069458,7.5218119621276855,7.087559700012207,2.708608627319336,7.532285213470459,0.32645827531814575,1.8225327730178833,0.3970700800418854,flexion_heavy_vertical
82.05889892578125,1.5082595888023418,-0.4698844317457396,-0.02157906370780921,-0.0010736674259985458,6.540431019644098,-2.8434839555245652,7.055150157180509,1.5177751779556274,0.4676934480667114,1.5179609060287476,0.46769481897354126,0.023740826174616814,0.0011286166263744235,1.9287025928497314,0.07544122636318207,4.338374614715576,4.340548038482666,4.340952396392822,4.347071170806885,-1.3249413967132568,-1.3257641792297363,-1.3259936571121216,-1.3269814252853394,0.014486296102404594,0.0006285039125941694,0.01854511722922325,0.0007520056678913534,0.018534380942583084,0.0007507677655667067,0.0,0.0,-0.16687513887882233,-0.16687513887882233,-0.16687513887882233,-0.16687513887882233,-0.0051619322039186954,-0.0051619322039186954,-0.0051619322039186954,-0.0051619322039186954,7.126700401306152,1.440592646598816,7.639913082122803,7.132193088531494,1.6872512102127075,7.646950721740723,0.27985310554504395,1.4464234113693237,0.32799699902534485,extension_heavy_vertical
83.21905517578125,1.5203399616222866,-0.4663765158572282,0.004582388185645847,0.0001446853278154583,7.164159106372093,0.6736898193843269,7.982175697450152,1.5145723819732666,0.4680522084236145,1.5147371292114258,0.4680532217025757,0.022333607077598572,0.0009688418940640986,2.0647940635681152,0.07361214607954025,4.315062522888184,4.317865371704102,4.319669246673584,4.3319010734558105,-1.3245892524719238,-1.3247445821762085,-1.3249324560165405,-1.3257259130477905,0.014903291128575802,0.0005742588546127081,0.01871589757502079,0.0007182189146988094,0.01868170127272606,0.0007181032560765743,0.0,0.0,-0.16687513887882233,-0.16687513887882233,-0.16687513887882233,-0.16687513887882233,0.005690680351108313,0.005690680351108313,0.005690680351108313,0.005690680351108313,7.0705671310424805,2.0185048580169678,7.493468284606934,7.0764384269714355,2.181159019470215,7.50182580947876,0.28819891810417175,0.9545850157737732,0.35401296615600586,extension_heavy_vertical
84.280517578125,1.5225536949499878,-0.4648018602956234,0.0026232093625615724,-0.00016580154597717824,5.9863601059100615,4.501462232241834,7.069745530765309,1.5155093669891357,0.4669896960258484,1.5155869722366333,0.46699127554893494,0.015332796610891819,0.001214512507431209,1.4334994554519653,0.05250855162739754,4.295151710510254,4.302520751953125,4.304625034332275,4.308740615844727,-1.323728322982788,-1.323805809020996,-1.3239269256591797,-1.3245835304260254,0.010476432740688324,0.00047090501175262034,0.012803229503333569,0.000618660997133702,0.012803114019334316,0.0006183702498674393,0.0,0.0,-0.10335955023765564,-0.10335955023765564,-0.10335955023765564,-0.10335955023765564,0.005690680351108313,0.005690680351108313,0.005690680351108313,0.005690680351108313,6.997612953186035,2.330657720565796,7.562513828277588,7.00723934173584,2.5979745388031006,7.5705461502075195,0.3671707510948181,2.550347089767456,0.3486432731151581,extension_heavy_vertical
85.5172119140625,1.5292810402119077,-0.4644753095875553,-0.002468772830318252,-0.0007628172426458262,5.343528449768921,7.498399210617057,5.43718232628983,1.5186553001403809,0.46532315015792847,1.5186866521835327,0.465324342250824,0.00975571759045124,0.001051501021720469,0.8050216436386108,0.04949146509170532,4.307990074157715,4.311549186706543,4.313071250915527,4.316795349121094,-1.3200900554656982,-1.320459246635437,-1.3205024003982544,-1.3205933570861816,0.007204789202660322,0.00039299001218751073,0.00906384363770485,0.0004892715369351208,0.009046710096299648,0.0004890910931862891,0.0,0.0,-0.0871739462018013,-0.0871739462018013,-0.0871739462018013,-0.0871739462018013,0.0034029867965728045,0.0034029867965728045,0.0034029867965728045,0.0034029867965728045,6.357508659362793,4.640680313110352,6.820158958435059,6.394514083862305,5.086709976196289,6.880562782287598,0.6869450211524963,2.082956314086914,0.9097098112106323,extension_heavy_vertical
86.43365478515625,1.5243286883693032,-0.463195150676785,-0.0030027809162526246,6.999054867252618e-05,4.893438320255121,8.269204828221826,3.801663350813383,1.5235650539398193,0.46396395564079285,1.5235822200775146,0.4639645516872406,0.007223230786621571,0.0007507695117965341,0.6022095680236816,0.040872931480407715,4.312641620635986,4.313672065734863,4.313771724700928,4.314932823181152,-1.314188838005066,-1.3142430782318115,-1.314279317855835,-1.3143585920333862,0.005007145926356316,0.0003450068470556289,0.0061638071201741695,0.00042961296276189387,0.006162230856716633,0.0004281728179194033,0.0,0.0,-0.060619860887527466,-0.060619860887527466,-0.060619860887527466,-0.060619860887527466,0.0034029867965728045,0.0034029867965728045,0.0034029867965728045,0.0034029867965728045,5.411096572875977,7.272214412689209,5.2211174964904785,5.439182281494141,7.330500602722168,5.306610107421875,0.5520279407501221,0.9225709438323975,0.9487054944038391,rest_heavy_vertical
87.26953125,1.5248896343708926,-0.46261417088942447,0.0011993988225910109,-0.00019582818408497022,5.009102570586161,8.45741161155286,3.319895612833107,1.524740219116211,0.4632018208503723,1.5247448682785034,0.46320196986198425,0.0037392505910247564,0.00038296557613648474,0.20691494643688202,0.018242765218019485,4.319835186004639,4.320561408996582,4.320674896240234,4.3227128982543945,-1.312610149383545,-1.312620997428894,-1.3127130270004272,-1.3129870891571045,0.0030393165070563555,0.0002225405623903498,0.0038320866879075766,0.00029370878473855555,0.0038136185612529516,0.00029213010566309094,0.0,0.0,-0.03141265735030174,-0.03141265735030174,-0.03141265735030174,-0.03141265735030174,-0.0031691037584096193,-0.0031691037584096193,-0.0031691037584096193,-0.0031691037584096193,4.985572338104248,8.20645523071289,3.888545513153076,4.989872932434082,8.210285186767578,3.939173698425293,0.2071305811405182,0.250745564699173,0.629526674747467,rest_heavy_vertical
88.04901123046875,1.5257230398589685,-0.46249396817479815,-0.001202789902647474,0.0001830477868620591,4.9007989354407995,8.385722840535493,3.3329055922728674,1.5247821807861328,0.46283501386642456,1.5247822999954224,0.46283507347106934,0.00047998130321502686,0.00022706911840941757,0.01167969685047865,0.009261619299650192,4.314095973968506,4.314183235168457,4.3148674964904785,4.315123081207275,-1.309865117073059,-1.3098745346069336,-1.309904932975769,-1.3100498914718628,0.0017957394011318684,0.0001318173308391124,0.002176122274249792,0.00016096714534796774,0.0021262257359921932,0.00016093712474685162,0.0,0.0,0.014114340767264366,0.014114340767264366,0.014114340767264366,0.014114340767264366,0.0013683740980923176,0.0013683740980923176,0.0013683740980923176,0.0013683740980923176,4.957337379455566,8.391401290893555,3.3391683101654053,4.958978176116943,8.391809463500977,3.3400814533233643,0.12755602598190308,0.08279716223478317,0.07809669524431229,rest_heavy_vertical
88.8768310546875,1.5263581108679107,-0.46214538030238184,0.0005516964721409364,0.000387621535884632,4.839800852706962,8.37533231638756,3.2571937044313897,1.525646686553955,0.46247997879981995,1.5256468057632446,0.4624800682067871,0.0005765256355516613,0.00028634624322876334,0.013687082566320896,0.010483680292963982,4.315910816192627,4.317237377166748,4.3178606033325195,4.317887783050537,-1.3090019226074219,-1.3090046644210815,-1.309016466140747,-1.3091317415237427,0.0012903398601338267,0.00013920232595410198,0.0016010623658075929,0.0001802835613489151,0.0016006126534193754,0.00017999077681452036,0.0,0.0,0.011701698414981365,0.011701698414981365,0.011701698414981365,0.011701698414981365,0.0017020537052303553,0.0017020537052303553,0.0017020537052303553,0.0017020537052303553,4.9443511962890625,8.405762672424316,3.305619955062866,4.944666862487793,8.405830383300781,3.305877208709717,0.05586341395974159,0.0338214710354805,0.04124096781015396,rest_heavy_vertical
89.952392578125,1.5274800028710898,-0.4618769275730497,0.00040432252994435623,-5.5759173884256074e-05,4.959914814163709,8.435592058419564,3.220397079021667,1.5266730785369873,0.4620743989944458,1.5266731977462769,0.46207451820373535,0.0006752228946425021,0.00031989708077162504,0.014572575688362122,0.011058649979531765,4.320252895355225,4.320426940917969,4.320443630218506,4.320481777191162,-1.3088632822036743,-1.3090170621871948,-1.3091211318969727,-1.3092591762542725,0.001014269539155066,0.00014987036411184818,0.0012345978757366538,0.00019371137022972107,0.0012142854975536466,0.00019237547530792654,0.0,0.0,0.008092068135738373,0.008092068135738373,0.008092068135738373,0.008092068135738373,0.0017020537052303553,0.0017020537052303553,0.0017020537052303553,0.0017020537052303553,4.9479265213012695,8.414628982543945,3.271544933319092,4.948254585266113,8.41468620300293,3.2718191146850586,0.0569915771484375,0.031013624742627144,0.04235922545194626,flexion_heavy_vertical
91.15887451171875,1.5272155568989119,-0.46173068093692105,-0.003796785239246612,0.0001053423562543624,5.267122199428477,7.459014350425886,5.025472954896029,1.5273761749267578,0.4617403447628021,1.5273778438568115,0.4617404639720917,0.0022547892294824123,0.00032367752282880247,0.1179729551076889,0.02366390824317932,4.320657253265381,4.32314920425415,4.323154449462891,4.3253021240234375,-1.3066325187683105,-1.3066486120224,-1.3066602945327759,-1.306844711303711,0.0016735007520765066,0.00017832026060204953,0.0021815532818436623,0.0002332587755518034,0.002178699942305684,0.00023318745661526918,0.0,0.0,-0.017596958205103874,-0.017596958205103874,-0.017596958205103874,-0.017596958205103874,-0.002144649624824524,-0.002144649624824524,-0.002144649624824524,-0.002144649624824524,5.005044937133789,8.324457168579102,3.5316152572631836,5.008044719696045,8.327431678771973,3.569063425064087,0.1733146458864212,0.22257773578166962,0.5156616568565369,flexion_heavy_vertical
92.12164306640625,1.5399850919493812,-0.4624679242532958,-0.012668539947953038,0.0005863831922174503,6.7978184403184825,3.3977652995121996,7.4926874053422265,1.526418685913086,0.4618396759033203,1.5264413356781006,0.4618399441242218,0.008306862786412239,0.0005061354022473097,0.5628572106361389,0.03980312496423721,4.323155879974365,4.324162483215332,4.325182914733887,4.325909614562988,-1.307089924812317,-1.3071500062942505,-1.3080447912216187,-1.3081786632537842,0.00344923441298306,0.0002666432410478592,0.004598306491971016,0.000337473233230412,0.004591938108205795,0.0003374723019078374,0.0,0.0,0.0397987961769104,0.0397987961769104,0.0397987961769104,0.0397987961769104,-0.0027090117800980806,-0.0027090117800980806,-0.0027090117800980806,-0.0027090117800980806,5.622465133666992,6.818496227264404,5.228451728820801,5.6616387367248535,7.012589454650879,5.454591751098633,0.6648582220077515,1.638450264930725,1.5543044805526733,flexion_heavy_vertical
93.16094970703125,1.5038661795827497,-0.46424091429403397,0.0048111764409434574,-0.00024742709025891134,7.002501167113848,-1.3995806474807058,7.479032374035135,1.519980549812317,0.46286630630493164,1.5200660228729248,0.46286776661872864,0.01611793413758278,0.0011509667383506894,1.2298059463500977,0.06003724783658981,4.314728260040283,4.318169116973877,4.325331211090088,4.326149940490723,-1.3120275735855103,-1.312848448753357,-1.3131414651870728,-1.3134104013442993,0.008222627453505993,0.0003874730318784714,0.011241884902119637,0.0005280283512547612,0.01123986579477787,0.0005279735778458416,0.0,0.0,0.09110146760940552,0.09110146760940552,0.09110146760940552,0.09110146760940552,0.0051867119036614895,0.0051867119036614895,0.0051867119036614895,0.0051867119036614895,6.570236682891846,3.496901750564575,7.219470500946045,6.591350078582764,4.139869689941406,7.259606838226318,0.5271440148353577,2.5475571155548096,0.7623216509819031,flexion_heavy_vertical
94.30499267578125,1.524665255970257,-0.465136424518,0.03391485885846458,0.000978596768377226,6.489998771821248,-3.946147859190398,6.831202483329283,1.5158729553222656,0.4643663167953491,1.5160640478134155,0.46436771750450134,0.02406712993979454,0.001134533085860312,1.9813954830169678,0.07388660311698914,4.3291544914245605,4.337191104888916,4.3387532234191895,4.339933395385742,-1.3149315118789673,-1.3152865171432495,-1.315667986869812,-1.316209077835083,0.014809759333729744,0.0005103995790705085,0.018835917115211487,0.0006554412539117038,0.0188355203717947,0.0006554024294018745,0.0,0.0,-0.1276906132698059,-0.1276906132698059,-0.1276906132698059,-0.1276906132698059,0.0051867119036614895,0.0051867119036614895,0.0051867119036614895,0.0051867119036614895,6.9768195152282715,2.1799347400665283,7.5313334465026855,6.981607913970947,2.431258201599121,7.53970193862915,0.25853878259658813,2.286240816116333,0.3551316261291504,extension_heavy_vertical
95.08648681640625,1.550500826100607,-0.46439116768731686,0.0028580463754076108,-0.0006792950742931494,7.173459034160688,-1.5350993649364058,7.70734919920108,1.5190693140029907,0.46491459012031555,1.519300937652588,0.46491512656211853,0.026532284915447235,0.0007111314334906638,2.422086715698242,0.06358522921800613,4.31557559967041,4.322802543640137,4.328670501708984,4.338140964508057,-1.3157333135604858,-1.3157347440719604,-1.3158371448516846,-1.3162165880203247,0.016640998423099518,0.0004345084016676992,0.020914701744914055,0.0005551885114982724,0.02089260146021843,0.0005542946746572852,0.0,0.0,-0.13018885254859924,-0.13018885254859924,-0.13018885254859924,-0.13018885254859924,-0.004471952095627785,-0.004471952095627785,-0.004471952095627785,-0.004471952095627785,6.882209777832031,3.0048046112060547,7.2119598388671875,6.88856315612793,3.0863757133483887,7.217507362365723,0.29578667879104614,0.7048861980438232,0.28293099999427795,extension_heavy_vertical
95.92840576171875,1.505947689924362,-0.46275841414697605,-0.011059882375004021,0.0005025315997434016,7.13965565009818,1.2102182465620994,7.941468624275812,1.5155925750732422,0.4639768600463867,1.5157554149627686,0.46397802233695984,0.02221609279513359,0.0010398348094895482,2.1946029663085938,0.05702617019414902,4.301609516143799,4.306598663330078,4.310662269592285,4.313520431518555,-1.3154892921447754,-1.3155193328857422,-1.315564513206482,-1.315725326538086,0.013739759102463722,0.0003557284944690764,0.017658762633800507,0.00044263721792958677,0.01765242964029312,0.000442555668996647,0.0,0.0,-0.13018885254859924,-0.13018885254859924,-0.13018885254859924,-0.13018885254859924,0.0029090996831655502,0.0029090996831655502,0.0029090996831655502,0.0029090996831655502,6.9661993980407715,2.021761655807495,7.508482456207275,6.972777366638184,2.4324965476989746,7.520712375640869,0.30280911922454834,1.6839499473571777,0.4287269413471222,extension_heavy_vertical
96.800537109375,1.5234411916596455,-0.4605847483908168,0.004237729571221558,-0.0005249822840849898,6.202610447500862,4.050315536438317,7.008032701893498,1.513454556465149,0.4623299539089203,1.5135376453399658,0.4623311758041382,0.015858778730034828,0.001060469658114016,1.4517502784729004,0.050152577459812164,4.292636871337891,4.297727108001709,4.3033857345581055,4.303504943847656,-1.3120189905166626,-1.3120346069335938,-1.3120659589767456,-1.3120677471160889,0.010135809890925884,0.00036122798337601125,0.013050061650574207,0.00043666569399647415,0.01294321846216917,0.0004365521890576929,0.0,0.0,-0.11424381285905838,-0.11424381285905838,-0.11424381285905838,-0.11424381285905838,-0.002843162277713418,-0.002843162277713418,-0.002843162277713418,-0.002843162277713418,7.011195659637451,1.60647451877594,7.82136344909668,7.015036106109619,1.9255340099334717,7.823616981506348,0.23209089040756226,1.6038033962249756,0.18776562809944153,extension_heavy_vertical
97.9365234375,1.5253243675221244,-0.45991361656748647,-0.0034932060948627964,-0.00024870643180047603,5.237111777683818,7.196746037288697,5.638888611755498,1.5185174942016602,0.4606543779373169,1.5185511112213135,0.46065554022789,0.010098133236169815,0.0010341410525143147,0.869432270526886,0.04568304121494293,4.297566890716553,4.303562641143799,4.3057475090026855,4.319706439971924,-1.3064548969268799,-1.306479811668396,-1.306483268737793,-1.306519865989685,0.006763889919966459,0.00036749246646650136,0.00856527779251337,0.00045251159463077784,0.008565069176256657,0.0004525001277215779,0.0,0.0,0.0668567642569542,0.0668567642569542,0.0668567642569542,0.0668567642569542,0.003308938117697835,0.003308938117697835,0.003308938117697835,0.003308938117697835,6.323113441467285,4.289101600646973,7.055334091186523,6.353531360626221,4.767432689666748,7.103461265563965,0.6209609508514404,2.0813512802124023,0.8254827857017517,extension_heavy_vertical
98.7784423828125,1.523469238959725,-0.45808052516943515,-0.003128179209159695,0.0005388225360055042,4.782083389094482,7.917617501788081,4.714363005833911,1.523024320602417,0.459286093711853,1.5230414867401123,0.45928680896759033,0.007230219431221485,0.0007971147424541414,0.5671424269676208,0.046991247683763504,4.314786911010742,4.318841934204102,4.32220983505249,4.3243088722229,-1.3016173839569092,-1.301624059677124,-1.3017233610153198,-1.3017709255218506,0.004966661334037781,0.0003667862620204687,0.00643722340464592,0.00045220920583233237,0.006403489038348198,0.0004521543742157519,0.0,0.0,-0.05256437882781029,-0.05256437882781029,-0.05256437882781029,-0.05256437882781029,0.003308938117697835,0.003308938117697835,0.003308938117697835,0.003308938117697835,5.4015655517578125,6.961483001708984,5.653538703918457,5.426677227020264,7.038008689880371,5.711503505706787,0.5214551687240601,1.0350464582443237,0.8116475343704224,rest_heavy_vertical
99.72711181640625,1.5239179957609965,-0.457619748096701,-0.003197577553005005,0.0001699229954319148,4.939197181633646,8.333596457157258,3.5582723802322205,1.5247372388839722,0.4583207368850708,1.5247420072555542,0.45832109451293945,0.0038056233897805214,0.0005823918036185205,0.25391823053359985,0.02889673225581646,4.311123371124268,4.314802646636963,4.3221917152404785,4.3242292404174805,-1.297737717628479,-1.2978867292404175,-1.297990322113037,-1.2980529069900513,0.003579646348953247,0.00026418972993269563,0.004754073917865753,0.0003383730654604733,0.004714244045317173,0.0003383210569154471,0.0,0.0,0.04633666202425957,0.04633666202425957,0.04633666202425957,0.04633666202425957,-0.0028040423057973385,-0.0028040423057973385,-0.0028040423057973385,-0.0028040423057973385,4.959406852722168,8.010272979736328,4.404520034790039,4.9642653465271,8.017824172973633,4.4589385986328125,0.21958453953266144,0.3479125499725342,0.6945059895515442,rest_heavy_vertical
100.91748046875,1.525240225621886,-0.45721506562412567,0.0012640189593386944,-4.403642142002801e-05,4.960564424397569,8.327149980808988,3.2853581024076357,1.5241968631744385,0.4577179253101349,1.5241971015930176,0.45771801471710205,0.000655658426694572,0.0002847262076102197,0.018346941098570824,0.013572890311479568,4.312910079956055,4.313800811767578,4.313888072967529,4.314103603363037,-1.2952162027359009,-1.2952450513839722,-1.2953011989593506,-1.2954519987106323,0.001982611371204257,0.00018315993656869978,0.002388374414294958,0.00024181240587495267,0.002388142514973879,0.00023990834597498178,0.0,0.0,-0.014462246559560299,-0.014462246559560299,-0.014462246559560299,-0.014462246559560299,0.002442380879074335,0.002442380879074335,0.002442380879074335,0.002442380879074335,4.947739124298096,8.311787605285645,3.6293513774871826,4.949331760406494,8.312621116638184,3.647162675857544,0.12554337084293365,0.11768347024917603,0.36000514030456543,rest_heavy_vertical
101.66876220703125,1.5262359047747074,-0.45693459262333097,-0.0002428784225522324,-2.6613846508115385e-05,5.033772593586703,8.396740527112302,3.377259358670516,1.5252269506454468,0.45734965801239014,1.5252270698547363,0.4573497772216797,0.0007066492107696831,0.0002969109336845577,0.01609714701771736,0.012987903319299221,4.31566858291626,4.316341876983643,4.316531658172607,4.316667079925537,-1.2945727109909058,-1.2945921421051025,-1.2946183681488037,-1.294649362564087,0.0012486252235248685,0.00013145394041202962,0.0014656382845714688,0.00019753046217374504,0.0014560854760929942,0.00019688338215928525,0.0,0.0,-0.009498773142695427,-0.009498773142695427,-0.009498773142695427,-0.009498773142695427,0.0023249268997460604,0.0023249268997460604,0.0023249268997460604,0.0023249268997460604,4.9989013671875,8.362377166748047,3.3841171264648438,4.999443054199219,8.36244010925293,3.384996175765991,0.07359054684638977,0.03250088170170784,0.0771314799785614,rest_heavy_vertical
102.44219970703125,1.526953114305311,-0.45683041693732146,0.0008227780149621081,-5.3558923519322435e-05,5.1431470148318335,8.46628772593013,3.471327989207627,1.5261411666870117,0.4570021331310272,1.5261412858963013,0.457002192735672,0.0005283360369503498,0.00025934568839147687,0.0172971710562706,0.010926426388323307,4.317770957946777,4.318202972412109,4.318379878997803,4.318463325500488,-1.2933048009872437,-1.2933100461959839,-1.2933522462844849,-1.2935343980789185,0.0009541298495605588,0.00011604981409618631,0.0011632336536422372,0.00017045509594026953,0.0011575014796108007,0.00017044680134858936,0.0,0.0,-0.0071169547736644745,-0.0071169547736644745,-0.0071169547736644745,-0.0071169547736644745,0.0023249268997460604,0.0023249268997460604,0.0023249268997460604,0.0023249268997460604,5.007449150085449,8.375999450683594,3.3503284454345703,5.007687568664551,8.376062393188477,3.3504855632781982,0.048896875232458115,0.03248888999223709,0.032446686178445816,flexion_heavy_vertical
103.54193115234375,1.5272355906846828,-0.4583569914130757,-0.0021449248165481315,0.0001725038975995775,6.123022772681771,6.053007810918723,6.278180882635082,1.526502251625061,0.4568977355957031,1.5265101194381714,0.45689788460731506,0.004887975286692381,0.0003924021730199456,0.39669299125671387,0.022948700934648514,4.3176422119140625,4.319172382354736,4.319775104522705,4.321786403656006,-1.2925803661346436,-1.2929022312164307,-1.294337511062622,-1.294602870941162,0.0018362558912485838,0.000175977373146452,0.002736565889790654,0.00023528751626145095,0.002731665503233671,0.0002349396818317473,0.0,0.0,0.028358984738588333,0.028358984738588333,0.028358984738588333,0.028358984738588333,0.0018987550865858793,0.0018987550865858793,0.0018987550865858793,0.0018987550865858793,5.148617267608643,8.019171714782715,4.078608989715576,5.15570592880249,8.042723655700684,4.183065891265869,0.2702674865722656,0.6150456666946411,0.9289711117744446,flexion_heavy_vertical
104.3455810546875,1.5318653985763735,-0.4581686738268278,-0.007989302254387265,0.0001210530330239863,7.315851596328492,2.8145102324721027,7.488774090680422,1.5238244533538818,0.45755407214164734,1.5238505601882935,0.4575549066066742,0.008914834819734097,0.0008717341115698218,0.7914326786994934,0.04731179028749466,4.314977645874023,4.317490100860596,4.321585178375244,4.32194709777832,-1.2958452701568604,-1.2963347434997559,-1.2964107990264893,-1.2970911264419556,0.004448742140084505,0.0003007198392879218,0.00591670535504818,0.0003879699215758592,0.005916622467339039,0.0003878276329487562,0.0,0.0,0.042219359427690506,0.042219359427690506,0.042219359427690506,0.042219359427690506,0.0029939000960439444,0.0029939000960439444,0.0029939000960439444,0.0029939000960439444,6.0117974281311035,6.009806156158447,5.893617630004883,6.06467342376709,6.292931079864502,6.02771520614624,0.7990944385528564,1.8663357496261597,1.2643660306930542,flexion_heavy_vertical
105.1190185546875,1.4908622492387593,-0.4619410356875171,0.0064417343969594,-0.00035148523987204943,7.742980946945318,-0.4463749747856427,8.03303445356768,1.5192601680755615,0.4591042697429657,1.5193263292312622,0.4591059386730194,0.014176829718053341,0.0012318508233875036,1.1666474342346191,0.06579495966434479,4.316755771636963,4.316947937011719,4.316967487335205,4.317281723022461,-1.3015683889389038,-1.3018907308578491,-1.3036623001098633,-1.3043007850646973,0.00877414457499981,0.000388983404263854,0.01165298093110323,0.00047419220209121704,0.011652822606265545,0.00047411242849193513,0.0,0.0,-0.0960509404540062,-0.0960509404540062,-0.0960509404540062,-0.0960509404540062,-0.0034041516482830048,-0.0034041516482830048,-0.0034041516482830048,-0.0034041516482830048,7.0645551681518555,2.6545915603637695,7.283820152282715,7.078919410705566,3.277580499649048,7.2944488525390625,0.45073315501213074,2.0723226070404053,0.393630713224411,flexion_heavy_vertical
105.99114990234375,1.5157882854951035,-0.4615263363220563,-0.00235695169023339,1.4055633843407069e-05,6.577491972974566,-2.940554800797092,7.14678765890208,1.516114592552185,0.4604378938674927,1.5162404775619507,0.4604388177394867,0.01953776180744171,0.0009211666765622795,1.9345325231552124,0.07606027275323868,4.295650959014893,4.303791046142578,4.30709171295166,4.309041500091553,-1.303646445274353,-1.3037497997283936,-1.303844928741455,-1.3040077686309814,0.013044089078903198,0.0004761731543112546,0.01586400344967842,0.0005972651997581124,0.01586396060883999,0.0005970151978544891,0.0,0.0,-0.09679308533668518,-0.09679308533668518,-0.09679308533668518,-0.09679308533668518,0.0047037252224981785,0.0047037252224981785,0.0047037252224981785,0.0047037252224981785,7.219021797180176,1.5102616548538208,7.519671440124512,7.225412845611572,1.7591789960861206,7.524371147155762,0.30383387207984924,1.623122215270996,0.26591044664382935,extension_heavy_vertical
107.06671142578125,1.4989699223403044,-0.45959908613088096,-0.00029597417526543894,-0.0005324420638485467,6.981833504601773,-0.22786666496946686,7.82190467704461,1.5139073133468628,0.46055832505226135,1.5140385627746582,0.46055904030799866,0.019931592047214508,0.0008067652233876288,1.9834328889846802,0.06508976966142654,4.295758247375488,4.298966884613037,4.3054585456848145,4.311271667480469,-1.303598165512085,-1.3037946224212646,-1.3038486242294312,-1.3040109872817993,0.0117246238514781,0.0005053702625446022,0.015044305473566055,0.0006385230226442218,0.015035350807011127,0.0006376309902407229,0.0,0.0,0.10995529592037201,0.10995529592037201,0.10995529592037201,0.10995529592037201,0.0047037252224981785,0.0047037252224981785,0.0047037252224981785,0.0047037252224981785,6.896133899688721,2.1521897315979004,7.535083293914795,6.90322208404541,2.3231310844421387,7.541828632354736,0.3127535581588745,0.8746527433395386,0.3189033269882202,extension_heavy_vertical
107.8502197265625,1.5206645089517776,-0.4572831804957473,-0.006909358301185003,-0.0002166402972287537,6.725238465641212,4.374537411804205,7.463605600265778,1.514112949371338,0.4594462513923645,1.51418936252594,0.45944786071777344,0.01521579921245575,0.001212133327499032,1.3809629678726196,0.051586996763944626,4.293510913848877,4.29368257522583,4.297341346740723,4.310087203979492,-1.3027409315109253,-1.3027583360671997,-1.302839994430542,-1.303208351135254,0.008395940996706486,0.00038655384560115635,0.011314943432807922,0.0004942978266626596,0.011314846575260162,0.0004942116793245077,0.0,0.0,0.10995529592037201,0.10995529592037201,0.10995529592037201,0.10995529592037201,-0.0044882106594741344,-0.0044882106594741344,-0.0044882106594741344,-0.0044882106594741344,6.8453521728515625,2.0894813537597656,7.667746067047119,6.851770401000977,2.427666664123535,7.67339563369751,0.29650115966796875,2.422666311264038,0.29439544677734375,extension_heavy_vertical
108.5994873046875,1.5072458792423262,-0.4561833256569165,0.0024843686309623143,0.0007326296808996218,5.175480741388785,6.925716658358396,5.49988136779436,1.517142415046692,0.4577537178993225,1.5171723365783691,0.45775529742240906,0.009536330588161945,0.0012034104438498616,0.8107693195343018,0.055409446358680725,4.2932257652282715,4.294137001037598,4.297664642333984,4.308320045471191,-1.3003867864608765,-1.3004355430603027,-1.3004374504089355,-1.3004955053329468,0.006616616155952215,0.00032986770384013653,0.008104313164949417,0.00041112949838861823,0.008068677969276905,0.0004091504670213908,0.0,0.0,-0.05997813120484352,-0.05997813120484352,-0.05997813120484352,-0.05997813120484352,0.0027679395861923695,0.0027679395861923695,0.0027679395861923695,0.0027679395861923695,6.507256031036377,3.902000665664673,7.14126443862915,6.528805732727051,4.49946403503418,7.175198078155518,0.5300238728523254,2.2649409770965576,0.6969987154006958,extension_heavy_vertical
109.78179931640625,1.5215079313327389,-0.4551355586610904,0.002443716602712734,0.00014383792171328522,4.896474593729131,8.167894186035708,4.105290698214466,1.5213507413864136,0.4563309848308563,1.5213640928268433,0.4563318192958832,0.006381835322827101,0.0008652888936921954,0.5145117044448853,0.05208183452486992,4.30681848526001,4.309042930603027,4.311854362487793,4.312975883483887,-1.2933533191680908,-1.2933884859085083,-1.29351007938385,-1.293541431427002,0.004617498256266117,0.00039436350925825536,0.0055099674500525,0.0005083298892714083,0.005501060746610165,0.0005082593415863812,0.0,0.0,0.042541440576314926,0.042541440576314926,0.042541440576314926,0.042541440576314926,-0.005182991269975901,-0.005182991269975901,-0.005182991269975901,-0.005182991269975901,5.597222805023193,6.8121771812438965,5.656022548675537,5.6254963874816895,6.899060249328613,5.745155334472656,0.5633008480072021,1.0914560556411743,1.0080779790878296,extension_heavy_vertical
110.63177490234375,1.5220568570628659,-0.45511752825389645,-0.0010040292973568922,-0.0004268155991445784,5.069581916942776,8.397411037026663,3.343733862952456,1.5226528644561768,0.45544570684432983,1.5226573944091797,0.4554460346698761,0.0037527119275182486,0.0005564331077039242,0.23253615200519562,0.025879643857479095,4.3156232833862305,4.316147327423096,4.316774845123291,4.317130088806152,-1.2907721996307373,-1.2908179759979248,-1.2908852100372314,-1.291006326675415,0.0024485245812684298,0.0002952440408989787,0.003318868577480316,0.0004281430447008461,0.0033174180425703526,0.0004277313710190356,0.0,0.0,0.03074825368821621,0.03074825368821621,0.03074825368821621,0.03074825368821621,-0.005182991269975901,-0.005182991269975901,-0.005182991269975901,-0.005182991269975901,5.042453765869141,8.044429779052734,4.155004501342773,5.0468668937683105,8.053531646728516,4.213993549346924,0.21101592481136322,0.3827844560146332,0.70262211561203,rest_heavy_vertical
111.32867431640625,1.5231547085231194,-0.4549792951320762,-5.577043025914163e-05,0.00026348800696763646,4.947880812533706,8.471277961851687,3.2218161931297944,1.5221037864685059,0.4550977051258087,1.5221039056777954,0.4550977349281311,0.0006220215000212193,0.00015835341764613986,0.014320150017738342,0.010431592352688313,4.306345462799072,4.30742073059082,4.307719707489014,4.307917594909668,-1.2874189615249634,-1.2874363660812378,-1.2874372005462646,-1.287580132484436,0.0008904571295715868,0.00018320884555578232,0.0011113493237644434,0.00022903084754943848,0.0011107733007520437,0.00022669564350508153,0.0,0.0,-0.007382519077509642,-0.007382519077509642,-0.007382519077509642,-0.007382519077509642,0.0021476238034665585,0.0021476238034665585,0.0021476238034665585,0.0021476238034665585,4.96369743347168,8.365718841552734,3.417919635772705,4.964378356933594,8.366354942321777,3.4253275394439697,0.08221734315156937,0.10316134989261627,0.225153386592865,rest_heavy_vertical
112.03363037109375,1.5238378606179124,-0.454919193774763,-5.832646140764717e-05,-0.00010151119169000016,4.935082983485868,8.425158186786149,3.14685256545442,1.5230079889297485,0.45504042506217957,1.523008108139038,0.45504048466682434,0.0005787305999547243,0.0002101846330333501,0.014286092482507229,0.012110423296689987,4.308591842651367,4.309793949127197,4.30994987487793,4.310127258300781,-1.2871034145355225,-1.2871205806732178,-1.2876112461090088,-1.2877718210220337,0.0005942936986684799,0.00020300174946896732,0.0007580149103887379,0.0002476040681358427,0.0007550350856035948,0.0002471943444106728,0.0,0.0,0.004921566229313612,0.004921566229313612,0.004921566229313612,0.004921566229313612,0.0021476238034665585,0.0021476238034665585,0.0021476238034665585,0.0021476238034665585,4.956464767456055,8.423209190368652,3.2368578910827637,4.956775188446045,8.423273086547852,3.2374000549316406,0.05544685944914818,0.0327148400247097,0.059251897037029266,rest_heavy_vertical
112.897705078125,1.5247534046276494,-0.45482904173879324,7.043176778513357e-06,0.0001278282453897446,4.970318841397398,8.46268991330388,3.055980525282081,1.5238395929336548,0.4549311697483063,1.5238397121429443,0.45493122935295105,0.000547128904145211,0.00021891688811592758,0.012194565497338772,0.011882038787007332,4.311460494995117,4.311859607696533,4.312252998352051,4.312355995178223,-1.2867820262908936,-1.2868082523345947,-1.2869484424591064,-1.287779688835144,0.00035875578760169446,0.0001725157635519281,0.00044386618537828326,0.0002236139407614246,0.00044304426410235465,0.00022338477720040828,0.0,0.0,-0.0027826260775327682,-0.0027826260775327682,-0.0027826260775327682,-0.0027826260775327682,0.0015995335998013616,0.0015995335998013616,0.0015995335998013616,0.0015995335998013616,4.952756881713867,8.442161560058594,3.167236804962158,4.953274726867676,8.442242622375488,3.1675519943237305,0.07163476198911667,0.03696897253394127,0.04469231888651848,rest_heavy_vertical
113.64898681640625,1.5251761175074188,-0.4547749505172114,5.0817528570836864e-05,-0.0001675670884605533,5.019373344438544,8.46096644939026,3.1421537209630657,1.5245442390441895,0.45480749011039734,1.5245442390441895,0.4548075199127197,0.0003766615118365735,0.00017080322140827775,0.012446991167962551,0.01105464342981577,4.31296443939209,4.313146591186523,4.313702583312988,4.313877105712891,-1.2868003845214844,-1.2868032455444336,-1.286805272102356,-1.2868256568908691,0.0002872347249649465,0.00014793350419495255,0.00035202022991143167,0.00020341039635241032,0.00034679792588576674,0.00020256567222531885,0.0,0.0,-0.002108128508552909,-0.002108128508552909,-0.002108128508552909,-0.002108128508552909,0.002158999675884843,0.002158999675884843,0.002158999675884843,0.002158999675884843,4.949512958526611,8.454686164855957,3.113924503326416,4.950073719024658,8.454774856567383,3.1143910884857178,0.07452309876680374,0.03879581391811371,0.05390279367566109,rest_heavy_vertical
114.42242431640625,1.5254926513226013,-0.4560050249635541,-7.911693779319245e-05,-0.0002797216339709558,4.911926338172998,8.625659658708502,3.240826588384323,1.5250475406646729,0.4548274278640747,1.5250476598739624,0.4548274576663971,0.00035467586712911725,0.00020569979096762836,0.01587076485157013,0.011381193995475769,4.314304351806641,4.314310073852539,4.314358711242676,4.314380168914795,-1.2866075038909912,-1.2866371870040894,-1.2879424095153809,-1.2886115312576294,0.0002683413331396878,0.00011841763625852764,0.0003276646020822227,0.0001597993541508913,0.0003257525968365371,0.00015964003978297114,0.0,0.0,-0.002108128508552909,-0.002108128508552909,-0.002108128508552909,-0.002108128508552909,0.002158999675884843,0.002158999675884843,0.002158999675884843,0.002158999675884843,4.915060043334961,8.48095417022705,3.1174514293670654,4.915619373321533,8.481061935424805,3.118039608001709,0.07415954768657684,0.04271693900227547,0.060568924993276596,flexion_heavy_vertical
115.12738037109375,1.519147951368909,-0.4551055079824338,-0.0005322303091473758,0.00028888058490280293,5.510255521959342,7.061818273350387,5.242419665813826,1.5251226425170898,0.45508384704589844,1.5251309871673584,0.45508408546447754,0.00506472447887063,0.0004606044676620513,0.33343231678009033,0.03140496090054512,4.314648151397705,4.314846515655518,4.317193031311035,4.321404457092285,-1.287632942199707,-1.2876648902893066,-1.288069725036621,-1.288844347000122,0.001878830837085843,0.00017819000640884042,0.0035892543382942677,0.00025309392367489636,0.003589185420423746,0.0002517153334338218,0.0,0.0,0.046536147594451904,0.046536147594451904,0.046536147594451904,0.046536147594451904,-0.0029945664573460817,-0.0029945664573460817,-0.0029945664573460817,-0.0029945664573460817,5.0222015380859375,8.281888961791992,3.6659538745880127,5.037275791168213,8.291399955749512,3.7318122386932373,0.3894076943397522,0.3970175087451935,0.6980010271072388,flexion_heavy_vertical
115.90081787109375,1.4949711787004023,-0.4554641127477357,-0.003908823046755405,0.0005603979572455359,6.904082822824951,3.842580194854971,7.275752162013181,1.5225672721862793,0.4555644392967224,1.522591471672058,0.455564945936203,0.008599121123552322,0.0006919263978488743,0.7511166930198669,0.05009448155760765,4.314627647399902,4.314761638641357,4.318055152893066,4.321308135986328,-1.2897905111312866,-1.290103554725647,-1.2903298139572144,-1.2906267642974854,0.004266624338924885,0.0003449658106546849,0.005759600084275007,0.0004629706672858447,0.005755618214607239,0.0004626839072443545,0.0,0.0,-0.05147203058004379,-0.05147203058004379,-0.05147203058004379,-0.05147203058004379,0.004098871257156134,0.004098871257156134,0.004098871257156134,0.004098871257156134,5.6698784828186035,6.817922592163086,5.361321449279785,5.712429046630859,6.971909999847412,5.522568225860596,0.6959341168403625,1.4572100639343262,1.32476007938385,flexion_heavy_vertical
116.69036865234375,1.513227967673563,-0.4581546501767881,-0.004026000560972929,-0.00036984076213320406,7.495297973252768,-0.0876986430058233,7.361122626481488,1.5163401365280151,0.45666423439979553,1.5163962841033936,0.45666587352752686,0.013036509044468403,0.0012256711488589644,1.141120433807373,0.06170005351305008,4.316586017608643,4.318783760070801,4.318864822387695,4.325193881988525,-1.293358564376831,-1.2961838245391846,-1.2965108156204224,-1.2965706586837769,0.0071654855273664,0.00047529267612844706,0.009343607351183891,0.0005878132651560009,0.00934339128434658,0.0005875903298147023,0.0,0.0,0.07109468430280685,0.07109468430280685,0.07109468430280685,0.07109468430280685,-0.004249181132763624,-0.004249181132763624,-0.004249181132763624,-0.004249181132763624,6.73504638671875,3.80844783782959,6.983546733856201,6.770208358764648,4.326127529144287,7.009559631347656,0.6891075372695923,2.059910535812378,0.6033243536949158,flexion_heavy_vertical
117.44769287109375,1.514241677233578,-0.45929457258716094,-0.00860430712996249,0.000598279174995961,7.553371620171904,-2.96431639008563,7.144390932852799,1.5104384422302246,0.4581603705883026,1.5105558633804321,0.45816224813461304,0.018835339695215225,0.0013096536276862025,1.7619414329528809,0.08836302161216736,4.283638000488281,4.284605503082275,4.296508312225342,4.2997002601623535,-1.297372579574585,-1.2986505031585693,-1.2990676164627075,-1.2995637655258179,0.011644669808447361,0.0006243604002520442,0.014546304009854794,0.0007760339649394155,0.014517931267619133,0.0007755404803901911,0.0,0.0,-0.12558504939079285,-0.12558504939079285,-0.12558504939079285,-0.12558504939079285,0.005161464214324951,0.005161464214324951,0.005161464214324951,0.005161464214324951,7.432926654815674,1.8247170448303223,7.253494739532471,7.442109107971191,2.067013740539551,7.260168552398682,0.3695865571498871,2.0558433532714844,0.3112296164035797,flexion_heavy_vertical
118.1466064453125,1.5217222928404892,-0.458819771864387,0.022502747020201826,-0.00024422933530046827,6.634670918619228,-3.934430764375571,6.840585837826051,1.5092904567718506,0.4591869115829468,1.5094692707061768,0.45918846130371094,0.023233551532030106,0.0011947427410632372,2.297628879547119,0.11072473227977753,4.296038627624512,4.297789096832275,4.306102275848389,4.320815086364746,-1.299544095993042,-1.2999658584594727,-1.3003180027008057,-1.3016037940979004,0.014188977889716625,0.0006690378068014979,0.017197879031300545,0.0008456169744022191,0.01716175675392151,0.000845148868393153,0.0,0.0,0.13573776185512543,0.13573776185512543,0.13573776185512543,0.13573776185512543,0.005733398720622063,0.005733398720622063,0.005733398720622063,0.005733398720622063,7.320583820343018,2.5186760425567627,6.968025207519531,7.330410480499268,2.7380025386810303,6.974788188934326,0.37943384051322937,1.0737454891204834,0.3070780038833618,extension_heavy_vertical
118.956298828125,1.5280830198227984,-0.4591222820295299,0.0009046688447783002,3.925106640236464e-06,7.21768072260488,-2.4438238663227794,7.310240935186453,1.5086829662322998,0.4595661759376526,1.5088437795639038,0.45956724882125854,0.022032620385289192,0.0009902720339596272,2.1743509769439697,0.09770277142524719,4.286681175231934,4.292017936706543,4.297887325286865,4.30203914642334,-1.3004438877105713,-1.3010039329528809,-1.3011811971664429,-1.3012529611587524,0.013921552337706089,0.0005630669766105711,0.01676042005419731,0.0007320414297282696,0.016712941229343414,0.0007319662254303694,0.0,0.0,0.13573776185512543,0.13573776185512543,0.13573776185512543,0.13573776185512543,0.005733398720622063,0.005733398720622063,0.005733398720622063,0.005733398720622063,6.982686519622803,3.4099836349487305,6.883111953735352,6.986814498901367,3.4338467121124268,6.887105464935303,0.24013938009738922,0.4041213393211365,0.23449717462062836,extension_heavy_vertical
119.82037353515625,1.5156921233234024,-0.4566420993510736,-0.016467825587165818,-0.00034590168614290976,7.221559347810706,1.834133168979848,7.698103455769343,1.5101115703582764,0.45890477299690247,1.5102038383483887,0.45890599489212036,0.016692424193024635,0.001063105184584856,1.3683956861495972,0.06224296987056732,4.2981977462768555,4.299682140350342,4.299866199493408,4.308800220489502,-1.3022135496139526,-1.3023940324783325,-1.3026913404464722,-1.303088903427124,0.011117493733763695,0.0004232791543472558,0.0135785648599267,0.0005689984536729753,0.013545836322009563,0.0005676845321431756,0.0,0.0,-0.11049138009548187,-0.11049138009548187,-0.11049138009548187,-0.11049138009548187,0.0044049350544810295,0.0044049350544810295,0.0044049350544810295,0.0044049350544810295,7.111466884613037,2.300246477127075,7.261135578155518,7.117233753204346,2.5998375415802,7.272505283355713,0.2864573001861572,1.9385195970535278,0.4065066874027252,extension_heavy_vertical
120.55755615234375,1.5204681778512212,-0.45579266683438097,-0.002080393259926353,0.00012722075478678214,6.709934997119915,4.321524153780821,7.138078025244526,1.5142643451690674,0.4573959410190582,1.5143085718154907,0.4573972523212433,0.011573923751711845,0.0010972385061904788,1.0400059223175049,0.05047912895679474,4.294213771820068,4.297607421875,4.2999982833862305,4.300320148468018,-1.2985548973083496,-1.2985949516296387,-1.2986280918121338,-1.2988548278808594,0.0075124530121684074,0.00029274672851897776,0.00913901999592781,0.000377705815481022,0.009122413583099842,0.00037683694972656667,0.0,0.0,0.0641581267118454,0.0641581267118454,0.0641581267118454,0.0641581267118454,0.0027967498172074556,0.0027967498172074556,0.0027967498172074556,0.0027967498172074556,7.164873123168945,2.1281521320343018,7.541550636291504,7.16974401473999,2.4074199199676514,7.5447235107421875,0.26422858238220215,1.8956379890441895,0.21877716481685638,extension_heavy_vertical
121.76202392578125,1.516277109867917,-0.45587480535604225,0.0029470138224760205,0.00025697301576950367,5.804513533990907,6.539710740394544,5.752558218367894,1.515918254852295,0.4558858871459961,1.515939474105835,0.4558868110179901,0.008022711612284184,0.0009176907478831708,0.8815487027168274,0.04275410249829292,4.293150424957275,4.294251918792725,4.2957234382629395,4.29628849029541,-1.2929606437683105,-1.2930203676223755,-1.2930299043655396,-1.2934166193008423,0.005410987883806229,0.00028959038900211453,0.0066239796578884125,0.0003616840112954378,0.006614155136048794,0.0003598149633035064,0.0,0.0,0.04249342903494835,0.04249342903494835,0.04249342903494835,0.04249342903494835,-0.002682681893929839,-0.002682681893929839,-0.002682681893929839,-0.002682681893929839,6.619040012359619,4.42560338973999,6.934107303619385,6.636436939239502,4.691202640533447,6.962804317474365,0.48021674156188965,1.5560895204544067,0.6315096616744995,extension_heavy_vertical
122.59588623046875,1.5198110696779308,-0.45465675118116217,0.008430851067907854,0.0004421134908051385,6.0377266181885805,7.6742599018901885,4.977481095966636,1.5178145170211792,0.4551614224910736,1.5178273916244507,0.4551616907119751,0.00625105993822217,0.0004983512917533517,0.6263282895088196,0.045861341059207916,4.29754114151001,4.300041675567627,4.301471710205078,4.306011199951172,-1.2886468172073364,-1.2886649370193481,-1.2886651754379272,-1.2886704206466675,0.004114764276891947,0.0003352038038428873,0.005187210626900196,0.000409971980843693,0.005185593850910664,0.0004097595810890198,0.0,0.0,-0.039877310395240784,-0.039877310395240784,-0.039877310395240784,-0.039877310395240784,-0.002743340563029051,-0.002743340563029051,-0.002743340563029051,-0.002743340563029051,5.873816967010498,6.455686569213867,5.935901165008545,5.891385555267334,6.510458946228027,5.963109493255615,0.45464518666267395,0.8427257537841797,0.5689919590950012,rest_heavy_vertical
